accel_x,accel_y,accel_z,grav_x,grav_y,grav_z,lin_acc_x,lin_acc_y,lin_acc_z,gyro_x,gyro_y,gyro_z,light,magn_x,magn_y,magn_z,orien_z,orien_x,orien_y,prox,sound,latitude,longitude,altitude,altit_google,speed,accuracy,orient,satellites,time,time_stamp
-4.0299,5.361,7.2808,-3.8657,5.8201,6.8814,-0.1754,-0.4423,0.4192,-13.7,91.35,9.06,2.0,32.89,-31.4,-21.34,260.58,-36.29,27.49,5.0,28.976,,,,NaN,,,,0 / 0,8,2020-10-20 19:54:44:576
-4.1783,4.746,7.9005,-3.9739,5.8123,6.8262,-0.1822,-1.0385,1.1036,-30.46,38.46,8.74,2.0,32.89,-31.4,-21.34,260.58,-36.29,27.49,5.0,28.976,,,,NaN,,,,0 / 0,13,2020-10-20 19:54:44:581
-4.1783,4.746,7.9005,-3.9739,5.8123,6.8262,-0.1822,-1.0385,1.1036,-30.46,38.46,8.74,2.0,32.89,-31.4,-21.34,260.58,-36.29,27.49,5.0,28.976,,,,NaN,,,,0 / 0,18,2020-10-20 19:54:44:586
-4.1783,4.746,7.9005,-3.9739,5.8123,6.8262,-0.1822,-1.0385,1.1036,-30.46,38.46,8.74,2.0,32.89,-31.4,-21.34,260.58,-36.29,27.49,5.0,28.976,,,,NaN,,,,0 / 0,22,2020-10-20 19:54:44:590
-4.4367,5.026,6.7783,-4.0347,5.7421,6.8498,-0.4138,-0.6993,-0.0514,-46.14,10.85,12.07,2.0,33.64,-32.45,-21.34,255.46,-36.35,30.21,5.0,28.976,,,,NaN,,,,0 / 0,28,2020-10-20 19:54:44:596
-4.4367,5.026,6.7783,-4.0347,5.7421,6.8498,-0.4138,-0.6993,-0.0514,-46.14,10.85,12.07,2.0,33.64,-32.45,-21.34,255.46,-36.35,30.21,5.0,28.976,,,,NaN,,,,0 / 0,32,2020-10-20 19:54:44:600
-4.4367,5.026,6.7783,-4.0347,5.7421,6.8498,-0.4138,-0.6993,-0.0514,-46.14,10.85,12.07,2.0,33.64,-32.45,-21.34,255.46,-36.35,30.21,5.0,28.976,,,,NaN,,,,0 / 0,37,2020-10-20 19:54:44:605
-4.0898,5.4376,7.1923,-4.0162,5.6623,6.9267,-0.0854,-0.2081,0.2859,-54.58,-1.33,15.5,2.0,32.29,-31.55,-21.49,255.46,-36.35,30.21,5.0,28.976,,,,NaN,,,,0 / 0,42,2020-10-20 19:54:44:610
-4.0898,5.4376,7.1923,-4.0162,5.6623,6.9267,-0.0854,-0.2081,0.2859,-54.58,-1.33,15.5,2.0,32.29,-31.55,-21.49,255.46,-36.35,30.21,5.0,28.976,,,,NaN,,,,0 / 0,48,2020-10-20 19:54:44:616
-4.0898,5.4376,7.1923,-4.0162,5.6623,6.9267,-0.0854,-0.2081,0.2859,-54.58,-1.33,15.5,2.0,32.29,-31.55,-21.49,255.46,-36.35,30.21,5.0,28.976,,,,NaN,,,,0 / 0,53,2020-10-20 19:54:44:621
-3.7284,5.428,8.0991,-3.9983,5.5856,6.9989,0.2588,-0.1422,1.1195,-49.68,8.47,16.55,2.0,32.14,-31.4,-23.59,253.95,-34.72,29.74,5.0,28.976,,,,NaN,,,,0 / 0,58,2020-10-20 19:54:44:626
-3.7284,5.428,8.0991,-3.9983,5.5856,6.9989,0.2588,-0.1422,1.1195,-49.68,8.47,16.55,2.0,32.14,-31.4,-23.59,253.95,-34.72,29.74,5.0,28.976,,,,NaN,,,,0 / 0,63,2020-10-20 19:54:44:631
-3.7284,5.428,8.0991,-3.9983,5.5856,6.9989,0.2588,-0.1422,1.1195,-49.68,8.47,16.55,2.0,32.14,-31.4,-23.59,253.95,-34.72,29.74,5.0,28.976,,,,NaN,,,,0 / 0,67,2020-10-20 19:54:44:635
-3.7284,5.428,8.0991,-3.9983,5.5856,6.9989,0.2588,-0.1422,1.1195,-49.68,8.47,16.55,2.0,32.14,-31.4,-23.59,253.95,-34.72,29.74,5.0,28.976,,,,NaN,,,,0 / 0,72,2020-10-20 19:54:44:640
-3.9581,4.9614,8.671,-4.0168,5.5079,7.0497,0.0496,-0.5342,1.6371,-32.32,27.75,14.9,2.0,32.14,-31.4,-23.59,253.95,-34.72,29.74,5.0,28.976,,,,NaN,,,,0 / 0,79,2020-10-20 19:54:44:647
-3.9581,4.9614,8.671,-4.0168,5.5079,7.0497,0.0496,-0.5342,1.6371,-32.32,27.75,14.9,2.0,32.44,-30.65,-21.04,253.95,-34.72,29.74,5.0,28.976,,,,NaN,,,,0 / 0,82,2020-10-20 19:54:44:650
-3.9581,4.9614,8.671,-4.0168,5.5079,7.0497,0.0496,-0.5342,1.6371,-15.59,41.19,14.48,2.0,32.44,-30.65,-21.04,253.95,-34.72,29.74,5.0,28.976,,,,NaN,,,,0 / 0,88,2020-10-20 19:54:44:656
-3.9581,4.9614,8.671,-4.0168,5.5079,7.0497,0.0496,-0.5342,1.6371,-15.59,41.19,14.48,2.0,32.44,-30.65,-21.04,253.95,-34.72,29.74,5.0,28.976,,,,NaN,,,,0 / 0,93,2020-10-20 19:54:44:661
-3.5562,5.6529,8.2212,-4.0792,5.4797,7.0359,0.5157,0.1831,1.1979,-15.59,41.19,14.48,2.0,32.44,-30.65,-21.04,253.95,-34.72,29.74,5.0,28.976,,,,NaN,,,,0 / 0,98,2020-10-20 19:54:44:666
-3.5562,5.6529,8.2212,-4.0792,5.4797,7.0359,0.5157,0.1831,1.1979,-2.71,54.77,10.46,2.0,32.74,-31.55,-20.74,248.39,-33.97,30.1,5.0,28.976,,,,NaN,,,,0 / 0,102,2020-10-20 19:54:44:670
-4.018,6.1363,7.7976,-4.1584,5.4856,6.9848,0.1344,0.6586,0.8229,2.54,59.81,8.22,2.0,32.74,-31.55,-20.74,248.39,-33.97,30.1,5.0,28.976,,,,NaN,,,,0 / 0,111,2020-10-20 19:54:44:679
-4.018,6.1363,7.7976,-4.1584,5.4856,6.9848,0.1344,0.6586,0.8229,2.54,59.81,8.22,2.0,32.74,-31.55,-20.74,248.39,-33.97,30.1,5.0,28.976,,,,NaN,,,,0 / 0,112,2020-10-20 19:54:44:680
-4.018,6.1363,7.7976,-4.1584,5.4856,6.9848,0.1344,0.6586,0.8229,2.54,59.81,8.22,2.0,32.74,-31.55,-20.74,248.39,-33.97,30.1,5.0,28.976,,,,NaN,,,,0 / 0,118,2020-10-20 19:54:44:686
-4.018,6.1363,7.7976,-4.1584,5.4856,6.9848,0.1344,0.6586,0.8229,2.54,59.81,8.22,2.0,32.74,-31.55,-20.74,248.39,-33.97,30.1,5.0,28.976,,,,NaN,,,,0 / 0,124,2020-10-20 19:54:44:692
-4.6975,6.7177,6.8381,-4.2898,5.5122,6.8836,-0.4189,1.2754,-0.4434,5.55,64.33,8.95,2.0,32.44,-31.7,-19.84,248.39,-33.97,30.1,5.0,28.976,,,,NaN,,,,0 / 0,128,2020-10-20 19:54:44:696
-4.6975,6.7177,6.8381,-4.2898,5.5122,6.8836,-0.4189,1.2754,-0.4434,5.55,64.33,8.95,2.0,32.44,-31.7,-19.84,248.39,-33.97,30.1,5.0,28.976,,,,NaN,,,,0 / 0,132,2020-10-20 19:54:44:700
-4.6975,6.7177,6.8381,-4.2898,5.5122,6.8836,-0.4189,1.2754,-0.4434,5.55,64.33,8.95,2.0,32.44,-31.7,-19.84,248.39,-33.97,30.1,5.0,28.976,,,,NaN,,,,0 / 0,137,2020-10-20 19:54:44:705
-4.5157,6.5359,5.4527,-4.3923,5.5258,6.8076,-0.1276,1.0155,-1.3483,-4.67,64.44,5.7,2.0,31.99,-31.25,-21.19,249.19,-34.3,32.83,5.0,28.976,,,,NaN,,,,0 / 0,143,2020-10-20 19:54:44:711
-4.5157,6.5359,5.4527,-4.3923,5.5258,6.8076,-0.1276,1.0155,-1.3483,-4.67,64.44,5.7,2.0,31.99,-31.25,-21.19,249.19,-34.3,32.83,5.0,28.976,,,,NaN,,,,0 / 0,148,2020-10-20 19:54:44:716
-4.5157,6.5359,5.4527,-4.3923,5.5258,6.8076,-0.1276,1.0155,-1.3483,-4.67,64.44,5.7,2.0,31.99,-31.25,-21.19,249.19,-34.3,32.83,5.0,28.976,,,,NaN,,,,0 / 0,153,2020-10-20 19:54:44:721
-5.3101,5.2892,5.412,-4.4864,5.5082,6.7603,-0.8292,-0.2122,-1.34,-20.21,52.64,6.47,2.0,31.99,-31.25,-21.19,249.19,-34.3,32.83,5.0,28.976,,,,NaN,,,,0 / 0,157,2020-10-20 19:54:44:725
-5.3101,5.2892,5.412,-4.4864,5.5082,6.7603,-0.8292,-0.2122,-1.34,-20.21,52.64,6.47,2.0,32.74,-32.0,-20.14,249.19,-34.3,32.83,5.0,28.976,,,,NaN,,,,0 / 0,162,2020-10-20 19:54:44:730
-5.3101,5.2892,5.412,-4.4864,5.5082,6.7603,-0.8292,-0.2122,-1.34,-34.49,43.08,13.57,2.0,32.74,-32.0,-20.14,249.19,-34.3,32.83,5.0,28.976,,,,NaN,,,,0 / 0,168,2020-10-20 19:54:44:736
-5.3101,5.2892,5.412,-4.4864,5.5082,6.7603,-0.8292,-0.2122,-1.34,-34.49,43.08,13.57,2.0,32.74,-32.0,-20.14,249.19,-34.3,32.83,5.0,28.976,,,,NaN,,,,0 / 0,172,2020-10-20 19:54:44:740
-5.1426,5.0906,6.0724,-4.5721,5.4533,6.7474,-0.5774,-0.3544,-0.6648,-39.18,45.01,17.32,2.0,32.74,-32.0,-20.14,249.19,-34.3,32.83,5.0,28.976,,,,NaN,,,,0 / 0,178,2020-10-20 19:54:44:746
-5.1426,5.0906,6.0724,-4.5721,5.4533,6.7474,-0.5774,-0.3544,-0.6648,-39.18,45.01,17.32,1.0,35.89,-29.45,-19.39,257.84,-33.79,34.12,5.0,28.976,,,,NaN,,,,0 / 0,183,2020-10-20 19:54:44:751
-5.1426,5.0906,6.0724,-4.5721,5.4533,6.7474,-0.5774,-0.3544,-0.6648,-39.18,45.01,17.32,1.0,35.89,-29.45,-19.39,257.84,-33.79,34.12,5.0,28.976,,,,NaN,,,,0 / 0,187,2020-10-20 19:54:44:755
-4.5205,5.2509,6.6634,-4.6292,5.4063,6.7463,0.1013,-0.1467,-0.0721,-40.3,50.61,19.77,1.0,35.89,-29.45,-19.39,257.84,-33.79,34.12,5.0,28.976,,,,NaN,,,,0 / 0,193,2020-10-20 19:54:44:761
-4.5205,5.2509,6.6634,-4.6292,5.4063,6.7463,0.1013,-0.1467,-0.0721,-40.3,50.61,19.77,1.0,35.89,-29.45,-19.39,257.84,-33.79,34.12,5.0,28.976,,,,NaN,,,,0 / 0,198,2020-10-20 19:54:44:766
-4.5205,5.2509,6.6634,-4.6292,5.4063,6.7463,0.1013,-0.1467,-0.0721,-35.96,55.3,16.9,1.0,33.34,-30.8,-20.74,257.84,-33.79,34.12,5.0,28.976,,,,NaN,,,,0 / 0,202,2020-10-20 19:54:44:770
-4.0539,4.7676,7.1205,-4.7184,5.3485,6.7306,0.6563,-0.5715,0.4017,-35.96,55.3,16.9,1.0,33.34,-30.8,-20.74,257.84,-33.79,34.12,5.0,28.976,,,,NaN,,,,0 / 0,207,2020-10-20 19:54:44:775
-4.0539,4.7676,7.1205,-4.7184,5.3485,6.7306,0.6563,-0.5715,0.4017,-35.4,43.22,13.5,1.0,33.34,-30.8,-20.74,257.84,-33.79,34.12,5.0,28.976,,,,NaN,,,,0 / 0,213,2020-10-20 19:54:44:781
-4.0539,4.7676,7.1205,-4.7184,5.3485,6.7306,0.6563,-0.5715,0.4017,-35.4,43.22,13.5,1.0,33.34,-30.8,-20.74,257.84,-33.79,34.12,5.0,28.976,,,,NaN,,,,0 / 0,218,2020-10-20 19:54:44:786
-4.0539,4.7676,7.1205,-4.7184,5.3485,6.7306,0.6563,-0.5715,0.4017,-35.4,43.22,13.5,1.0,33.34,-30.8,-20.74,257.84,-33.79,34.12,5.0,28.976,,,,NaN,,,,0 / 0,222,2020-10-20 19:54:44:790
-4.1735,4.9518,7.1181,-4.7524,5.2984,6.7462,0.57,-0.3366,0.3845,-38.72,16.59,9.41,1.0,33.34,-31.25,-18.19,244.66,-32.7,35.16,5.0,28.976,,,,NaN,,,,0 / 0,228,2020-10-20 19:54:44:796
-4.1735,4.9518,7.1181,-4.7524,5.2984,6.7462,0.57,-0.3366,0.3845,-38.72,16.59,9.41,1.0,33.34,-31.25,-18.19,244.66,-32.7,35.16,5.0,28.976,,,,NaN,,,,0 / 0,233,2020-10-20 19:54:44:801
-4.9201,4.8513,7.8383,-4.7524,5.2984,6.7462,0.57,-0.3366,0.3845,-43.2,-28.18,10.74,1.0,33.34,-31.25,-18.19,244.66,-32.7,35.16,5.0,28.976,,,,NaN,,,,0 / 0,237,2020-10-20 19:54:44:805
-4.9201,4.8513,7.8383,-4.6853,5.2141,6.858,-0.0988,-0.273,1.4866,-43.2,-28.18,10.74,1.0,33.34,-30.05,-19.39,244.66,-32.7,35.16,5.0,28.976,,,,NaN,,,,0 / 0,243,2020-10-20 19:54:44:811
-4.9201,4.8513,7.8383,-4.6853,5.2141,6.858,-0.0988,-0.273,1.4866,-43.2,-28.18,10.74,1.0,33.34,-30.05,-19.39,244.66,-32.7,35.16,5.0,35.708,,,,NaN,,,,0 / 0,247,2020-10-20 19:54:44:815
-4.0108,5.1193,9.0276,-4.6853,5.2141,6.858,-0.0988,-0.273,1.4866,-36.1,-56.46,18.16,1.0,33.34,-30.05,-19.39,244.66,-32.7,35.16,5.0,35.708,,,,NaN,,,,0 / 0,254,2020-10-20 19:54:44:822
-4.0108,5.1193,9.0276,-4.5598,5.1695,6.9753,0.764,0.0417,2.1127,-36.1,-56.46,18.16,1.0,33.34,-30.05,-19.39,244.66,-32.7,35.16,5.0,35.708,,,,NaN,,,,0 / 0,257,2020-10-20 19:54:44:825
-4.0108,5.1193,9.0276,-4.5598,5.1695,6.9753,0.764,0.0417,2.1127,-25.63,-64.51,17.7,1.0,34.09,-30.8,-18.94,245.71,-31.81,33.17,5.0,35.708,,,,NaN,,,,0 / 0,263,2020-10-20 19:54:44:831
-3.5514,5.1839,9.2285,-4.5598,5.1695,6.9753,0.764,0.0417,2.1127,-25.63,-64.51,17.7,1.0,34.09,-30.8,-18.94,245.71,-31.81,33.17,5.0,35.708,,,,NaN,,,,0 / 0,268,2020-10-20 19:54:44:836
-3.5514,5.1839,9.2285,-4.5598,5.1695,6.9753,0.764,0.0417,2.1127,-25.63,-64.51,17.7,1.0,34.09,-30.8,-18.94,245.71,-31.81,33.17,5.0,35.708,,,,NaN,,,,0 / 0,273,2020-10-20 19:54:44:841
-3.5514,5.1839,9.2285,-4.4138,5.151,7.082,0.7879,0.0768,2.0433,-13.35,-68.81,14.76,1.0,34.09,-30.8,-18.94,245.71,-31.81,33.17,5.0,35.708,,,,NaN,,,,0 / 0,278,2020-10-20 19:54:44:846
-3.726,5.1098,8.3528,-4.4138,5.151,7.082,0.7879,0.0768,2.0433,-13.35,-68.81,14.76,1.0,32.29,-31.55,-21.94,245.71,-31.81,33.17,5.0,35.708,,,,NaN,,,,0 / 0,282,2020-10-20 19:54:44:850
-3.726,5.1098,8.3528,-4.4138,5.151,7.082,0.7879,0.0768,2.0433,1.95,-71.16,9.86,1.0,32.29,-31.55,-21.94,245.71,-31.81,33.17,5.0,35.708,,,,NaN,,,,0 / 0,288,2020-10-20 19:54:44:856
-3.8265,4.9471,7.3909,-4.2199,5.1635,7.1904,0.3917,-0.2144,0.2034,1.95,-71.16,9.86,1.0,32.29,-31.55,-21.94,245.71,-31.81,33.17,5.0,35.708,,,,NaN,,,,0 / 0,293,2020-10-20 19:54:44:861
-3.8265,4.9471,7.3909,-4.2199,5.1635,7.1904,0.3917,-0.2144,0.2034,5.2,-73.01,8.04,1.0,32.29,-31.55,-21.94,245.71,-31.81,33.17,5.0,35.708,,,,NaN,,,,0 / 0,297,2020-10-20 19:54:44:865
-3.8265,4.9471,7.3909,-4.2199,5.1635,7.1904,0.3917,-0.2144,0.2034,5.2,-73.01,8.04,1.0,32.29,-31.55,-21.94,245.71,-31.81,33.17,5.0,35.708,,,,NaN,,,,0 / 0,303,2020-10-20 19:54:44:871
-3.1518,4.356,5.7709,-4.0775,5.1788,7.2612,0.9218,-0.8178,-1.4833,1.81,-70.35,7.31,1.0,28.99,-30.05,-22.99,242.22,-31.88,29.32,5.0,35.708,,,,NaN,,,,0 / 0,308,2020-10-20 19:54:44:876
-3.1518,4.356,5.7709,-4.0775,5.1788,7.2612,0.9218,-0.8178,-1.4833,1.81,-70.35,7.31,1.0,28.99,-30.05,-22.99,242.22,-31.88,29.32,5.0,35.708,,,,NaN,,,,0 / 0,312,2020-10-20 19:54:44:880
-3.1518,4.356,5.7709,-4.0775,5.1788,7.2612,0.9218,-0.8178,-1.4833,-10.83,-71.51,2.76,1.0,28.99,-30.05,-22.99,242.22,-31.88,29.32,5.0,35.708,,,,NaN,,,,0 / 0,318,2020-10-20 19:54:44:886
-3.1518,4.356,5.7709,-4.0775,5.1788,7.2612,0.9218,-0.8178,-1.4833,-10.83,-71.51,2.76,1.0,28.99,-30.05,-22.99,242.22,-31.88,29.32,5.0,35.708,,,,NaN,,,,0 / 0,322,2020-10-20 19:54:44:890
-2.7498,3.9492,5.5603,-3.8939,5.1636,7.3719,1.1352,-1.2026,-1.7947,-22.17,-81.2,0.45,1.0,28.84,-31.4,-22.39,242.22,-31.88,29.32,5.0,35.708,,,,NaN,,,,0 / 0,328,2020-10-20 19:54:44:896
-2.7498,3.9492,5.5603,-3.8939,5.1636,7.3719,1.1352,-1.2026,-1.7947,-22.17,-81.2,0.45,1.0,28.84,-31.4,-22.39,242.22,-31.88,29.32,5.0,35.708,,,,NaN,,,,0 / 0,333,2020-10-20 19:54:44:901
-2.7498,3.9492,5.5603,-3.8939,5.1636,7.3719,1.1352,-1.2026,-1.7947,-22.17,-81.2,0.45,1.0,28.84,-31.4,-22.39,242.22,-31.88,29.32,5.0,35.708,,,,NaN,,,,0 / 0,337,2020-10-20 19:54:44:905
-3.0321,3.5209,6.3859,-3.7319,5.1115,7.4911,0.688,-1.5744,-1.0815,-31.62,-90.51,-0.15,1.0,29.74,-32.0,-25.84,241.73,-31.41,26.48,5.0,35.708,,,,NaN,,,,0 / 0,343,2020-10-20 19:54:44:911
-3.0321,3.5209,6.3859,-3.7319,5.1115,7.4911,0.688,-1.5744,-1.0815,-31.62,-90.51,-0.15,1.0,29.74,-32.0,-25.84,241.73,-31.41,26.48,5.0,35.708,,,,NaN,,,,0 / 0,348,2020-10-20 19:54:44:916
-2.5488,3.3463,7.9484,-3.7319,5.1115,7.4911,0.9885,-1.6782,0.3517,-34.17,-93.14,3.25,1.0,29.74,-32.0,-25.84,241.73,-31.41,26.48,5.0,35.708,,,,NaN,,,,0 / 0,353,2020-10-20 19:54:44:921
-2.5488,3.3463,7.9484,-3.4867,5.0218,7.6678,0.9885,-1.6782,0.3517,-34.17,-93.14,3.25,1.0,29.74,-32.0,-25.84,241.73,-31.41,26.48,5.0,35.708,,,,NaN,,,,0 / 0,358,2020-10-20 19:54:44:926
-2.5488,3.3463,7.9484,-3.4867,5.0218,7.6678,0.9885,-1.6782,0.3517,-34.17,-93.14,3.25,1.0,29.74,-32.0,-25.84,241.73,-31.41,26.48,5.0,35.708,,,,NaN,,,,0 / 0,362,2020-10-20 19:54:44:930
-1.7424,3.7315,8.5227,-3.4867,5.0218,7.6678,1.6075,-1.235,0.8071,-24.9,-88.17,2.76,1.0,29.74,-30.05,-26.59,241.73,-31.41,26.48,5.0,35.708,,,,NaN,,,,0 / 0,368,2020-10-20 19:54:44:936
-1.7424,3.7315,8.5227,-3.3072,4.971,7.7796,1.6075,-1.235,0.8071,-24.9,-88.17,2.76,1.0,29.74,-30.05,-26.59,241.73,-31.41,26.48,5.0,35.708,,,,NaN,,,,0 / 0,373,2020-10-20 19:54:44:941
-1.7424,3.7315,8.5227,-3.3072,4.971,7.7796,1.6075,-1.235,0.8071,-18.84,-73.54,-0.46,1.0,29.74,-30.05,-26.59,241.73,-31.41,26.48,5.0,35.708,,,,NaN,,,,0 / 0,377,2020-10-20 19:54:44:945
-2.221,3.8918,8.3193,-3.3072,4.971,7.7796,0.9789,-1.0328,0.516,-18.84,-73.54,-0.46,1.0,29.74,-30.05,-26.59,241.73,-31.41,26.48,5.0,35.708,,,,NaN,,,,0 / 0,384,2020-10-20 19:54:44:952
-2.221,3.8918,8.3193,-3.3072,4.971,7.7796,0.9789,-1.0328,0.516,-18.84,-73.54,-0.46,1.0,29.74,-30.05,-26.59,241.73,-31.41,26.48,5.0,35.708,,,,NaN,,,,0 / 0,387,2020-10-20 19:54:44:955
-2.221,3.8918,8.3193,-3.1718,4.9337,7.8593,0.9789,-1.0328,0.516,-15.27,-61.18,-0.53,1.0,28.69,-29.75,-28.09,245.87,-30.46,23.03,5.0,35.708,,,,NaN,,,,0 / 0,392,2020-10-20 19:54:44:960
-2.2186,4.3177,8.1302,-3.1718,4.9337,7.8593,0.8603,-0.5769,0.2616,-15.27,-61.18,-0.53,1.0,28.69,-29.75,-28.09,245.87,-30.46,23.03,5.0,35.708,,,,NaN,,,,0 / 0,398,2020-10-20 19:54:44:966
-2.2186,4.3177,8.1302,-3.1718,4.9337,7.8593,0.8603,-0.5769,0.2616,-11.63,-61.46,3.0,1.0,28.69,-29.75,-28.09,245.87,-30.46,23.03,5.0,35.708,,,,NaN,,,,0 / 0,402,2020-10-20 19:54:44:970
-1.7113,4.5235,7.946,-3.0019,4.9019,7.9455,1.2774,-0.3569,0.0353,-11.63,-61.46,3.0,1.0,28.69,-29.45,-27.04,245.87,-30.46,23.03,5.0,35.708,,,,NaN,,,,0 / 0,407,2020-10-20 19:54:44:975
-1.7113,4.5235,7.946,-3.0019,4.9019,7.9455,1.2774,-0.3569,0.0353,-9.95,-68.78,1.99,1.0,28.69,-29.45,-27.04,245.87,-30.46,23.03,5.0,35.708,,,,NaN,,,,0 / 0,414,2020-10-20 19:54:44:982
-1.7113,4.5235,7.946,-3.0019,4.9019,7.9455,1.2774,-0.3569,0.0353,-9.95,-68.78,1.99,1.0,28.69,-29.45,-27.04,245.87,-30.46,23.03,5.0,35.708,,,,NaN,,,,0 / 0,418,2020-10-20 19:54:44:986
-1.7113,4.5235,7.946,-3.0019,4.9019,7.9455,1.2774,-0.3569,0.0353,-9.95,-68.78,-4.87,1.0,27.94,-30.5,-27.64,245.87,-30.46,23.03,5.0,35.708,,,,NaN,,,,0 / 0,423,2020-10-20 19:54:44:991
-0.9145,4.1478,7.2497,-2.8533,4.8771,8.0151,1.9249,-0.7055,-0.7263,-14.54,-74.41,-4.87,1.0,27.94,-30.5,-27.64,245.87,-30.46,23.03,5.0,35.708,,,,NaN,,,,0 / 0,428,2020-10-20 19:54:44:996
-0.9145,4.1478,7.2497,-2.8533,4.8771,8.0151,1.9249,-0.7055,-0.7263,-14.54,-74.41,-4.87,1.0,27.94,-30.5,-27.64,245.87,-30.46,23.03,5.0,35.708,,,,NaN,,,,0 / 0,432,2020-10-20 19:54:45:000
-0.9145,4.1478,7.2497,-2.8533,4.8771,8.0151,1.9249,-0.7055,-0.7263,-23.29,-71.82,-15.69,1.0,27.94,-30.5,-27.64,245.87,-30.46,23.03,5.0,35.708,,,,NaN,,,,0 / 0,438,2020-10-20 19:54:45:006
-2.1396,4.3967,8.0967,-2.6747,4.8045,8.1199,0.521,-0.3825,0.0196,-23.29,-71.82,-15.69,1.0,27.94,-30.5,-27.64,245.87,-30.46,23.03,5.0,35.708,,,,NaN,,,,0 / 0,443,2020-10-20 19:54:45:011
-2.1396,4.3967,8.0967,-2.6747,4.8045,8.1199,0.521,-0.3825,0.0196,-26.19,-57.86,-19.96,1.0,27.34,-29.6,-28.54,242.79,-29.34,18.23,5.0,35.708,,,,NaN,,,,0 / 0,448,2020-10-20 19:54:45:016
-2.1396,4.3967,8.0967,-2.6747,4.8045,8.1199,0.521,-0.3825,0.0196,-26.19,-57.86,-19.96,1.0,27.34,-29.6,-28.54,242.79,-29.34,18.23,5.0,35.708,,,,NaN,,,,0 / 0,452,2020-10-20 19:54:45:020
-2.6636,4.356,9.542,-2.6069,4.7362,8.1819,-0.0699,-0.3563,1.4015,-22.45,-33.46,-24.51,1.0,27.34,-29.6,-28.54,242.79,-29.34,18.23,5.0,35.708,,,,NaN,,,,0 / 0,457,2020-10-20 19:54:45:025
-2.6636,4.356,9.542,-2.6069,4.7362,8.1819,-0.0699,-0.3563,1.4015,-22.45,-33.46,-24.51,1.0,27.34,-29.6,-28.54,242.79,-29.34,18.23,5.0,35.708,,,,NaN,,,,0 / 0,462,2020-10-20 19:54:45:030
-2.6636,4.356,9.542,-2.6041,4.6846,8.2124,-1.2197,0.226,1.6463,-12.23,-10.08,-25.7,1.0,25.84,-28.1,-31.09,242.79,-29.34,18.23,5.0,35.708,,,,NaN,,,,0 / 0,468,2020-10-20 19:54:45:036
-2.6636,4.356,9.542,-2.6041,4.6846,8.2124,-1.2197,0.226,1.6463,-12.23,-10.08,-25.7,1.0,25.84,-28.1,-31.09,242.79,-29.34,18.23,5.0,35.708,,,,NaN,,,,0 / 0,472,2020-10-20 19:54:45:040
-4.0084,4.9686,9.8483,-2.6041,4.6846,8.2124,-1.2197,0.226,1.6463,-3.16,-3.08,-23.81,1.0,25.84,-28.1,-31.09,242.79,-29.34,18.23,5.0,35.708,,,,NaN,,,,0 / 0,478,2020-10-20 19:54:45:046
-4.0084,4.9686,9.8483,-2.6306,4.6601,8.2179,-1.7204,0.4602,1.0227,-3.16,-3.08,-23.81,1.0,25.84,-28.1,-31.09,242.79,-29.34,18.23,5.0,35.708,,,,NaN,,,,0 / 0,482,2020-10-20 19:54:45:050
-4.0084,4.9686,9.8483,-2.6306,4.6601,8.2179,-1.7204,0.4602,1.0227,-3.16,-3.08,-23.81,1.0,27.19,-28.7,-31.39,245.03,-28.37,17.75,5.0,35.708,,,,NaN,,,,0 / 0,488,2020-10-20 19:54:45:056
-4.0682,5.1265,9.006,-2.6306,4.6601,8.2179,-1.7204,0.4602,1.0227,4.08,5.74,-17.89,1.0,27.19,-28.7,-31.39,245.03,-28.37,17.75,5.0,35.708,,,,NaN,,,,0 / 0,493,2020-10-20 19:54:45:061
-4.0682,5.1265,9.006,-2.6729,4.6662,8.2008,-0.8877,0.5768,0.1251,4.08,5.74,-17.89,1.0,27.19,-28.7,-31.39,245.03,-28.37,17.75,5.0,35.708,,,,NaN,,,,0 / 0,498,2020-10-20 19:54:45:066
-3.1877,5.3155,8.0991,-2.6729,4.6662,8.2008,-0.8877,0.5768,0.1251,4.08,5.74,-17.89,1.0,27.19,-28.7,-31.39,245.03,-28.37,17.75,5.0,35.708,,,,NaN,,,,0 / 0,502,2020-10-20 19:54:45:070
-3.1877,5.3155,8.0991,-2.6729,4.6662,8.2008,-0.8877,0.5768,0.1251,10.28,13.96,-11.0,1.0,29.14,-27.35,-29.74,245.03,-28.37,17.75,5.0,35.708,,,,NaN,,,,0 / 0,510,2020-10-20 19:54:45:078
-3.1877,5.3155,8.0991,-2.7133,4.6769,8.1814,0.0574,0.9892,-0.4211,10.28,13.96,-11.0,1.0,29.14,-27.35,-29.74,245.03,-28.37,17.75,5.0,35.708,,,,NaN,,,,0 / 0,513,2020-10-20 19:54:45:081
-2.6014,5.7486,7.745,-2.7133,4.6769,8.1814,0.0574,0.9892,-0.4211,10.28,13.96,-11.0,1.0,29.14,-27.35,-29.74,245.03,-28.37,17.75,5.0,35.708,,,,NaN,,,,0 / 0,518,2020-10-20 19:54:45:086
-2.6014,5.7486,7.745,-2.7133,4.6769,8.1814,0.0574,0.9892,-0.4211,10.28,13.96,-11.0,1.0,29.14,-27.35,-29.74,245.03,-28.37,17.75,5.0,35.708,,,,NaN,,,,0 / 0,523,2020-10-20 19:54:45:091
-2.6014,5.7486,7.745,-2.7507,4.6713,8.1721,-0.0391,1.0591,-0.2138,-3.37,23.52,-13.03,1.0,27.49,-27.5,-30.19,249.17,-28.45,18.6,5.0,35.708,,,,NaN,,,,0 / 0,528,2020-10-20 19:54:45:096
-3.6854,5.6458,8.3145,-2.7507,4.6713,8.1721,-0.0391,1.0591,-0.2138,-3.37,23.52,-13.03,1.0,27.49,-27.5,-30.19,249.17,-28.45,18.6,5.0,35.708,,,,NaN,,,,0 / 0,533,2020-10-20 19:54:45:101
-3.6854,5.6458,8.3145,-2.7507,4.6713,8.1721,-0.0391,1.0591,-0.2138,-3.37,23.52,-13.03,1.0,27.49,-27.5,-30.19,249.17,-28.45,18.6,5.0,35.708,,,,NaN,,,,0 / 0,538,2020-10-20 19:54:45:106
-3.6854,5.6458,8.3145,-2.8506,4.6512,8.1493,-1.2881,1.0607,0.433,-6.98,48.3,-12.47,1.0,27.49,-27.5,-30.19,249.17,-28.45,18.6,5.0,35.708,,,,NaN,,,,0 / 0,542,2020-10-20 19:54:45:110
-4.4343,5.4113,8.8337,-2.8506,4.6512,8.1493,-1.2881,1.0607,0.433,-6.98,48.3,-12.47,1.0,28.84,-28.4,-30.04,249.17,-28.45,18.6,5.0,35.708,,,,NaN,,,,0 / 0,547,2020-10-20 19:54:45:115
-4.4343,5.4113,8.8337,-2.8506,4.6512,8.1493,-1.2881,1.0607,0.433,-8.06,71.26,-5.89,1.0,28.84,-28.4,-30.04,249.17,-28.45,18.6,5.0,35.708,,,,NaN,,,,0 / 0,553,2020-10-20 19:54:45:121
-4.4343,5.4113,8.8337,-3.0506,4.6225,8.093,-0.2301,0.134,0.9195,-8.06,71.26,-5.89,1.0,28.84,-28.4,-30.04,249.17,-28.45,18.6,5.0,35.708,,,,NaN,,,,0 / 0,558,2020-10-20 19:54:45:126
-2.6517,4.8705,8.147,-3.0506,4.6225,8.093,-0.2301,0.134,0.9195,-10.44,83.65,-3.05,1.0,28.84,-28.4,-30.04,249.17,-28.45,18.6,5.0,35.708,,,,NaN,,,,0 / 0,563,2020-10-20 19:54:45:131
-2.6517,4.8705,8.147,-3.0506,4.6225,8.093,-0.2301,0.134,0.9195,-10.44,83.65,-3.05,1.0,28.69,-27.2,-28.39,248.96,-28.12,20.65,5.0,58.039,,,,NaN,,,,0 / 0,568,2020-10-20 19:54:45:136
-2.6517,4.8705,8.147,-3.0506,4.6225,8.093,-0.2301,0.134,0.9195,-10.44,83.65,-3.05,1.0,28.69,-27.2,-28.39,248.96,-28.12,20.65,5.0,58.039,,,,NaN,,,,0 / 0,573,2020-10-20 19:54:45:141
-2.8862,4.5283,8.36,-3.2553,4.5908,8.0311,0.3618,-0.0522,0.3468,-17.86,113.96,-4.14,1.0,28.69,-27.2,-28.39,248.96,-28.12,20.65,5.0,58.039,,,,NaN,,,,0 / 0,578,2020-10-20 19:54:45:146
-2.8862,4.5283,8.36,-3.2553,4.5908,8.0311,0.3618,-0.0522,0.3468,-17.86,113.96,-4.14,1.0,28.69,-27.2,-28.39,248.96,-28.12,20.65,5.0,58.039,,,,NaN,,,,0 / 0,583,2020-10-20 19:54:45:151
-2.8862,4.5283,8.36,-3.2553,4.5908,8.0311,0.3618,-0.0522,0.3468,-27.07,145.08,2.06,1.0,30.79,-29.0,-28.39,248.96,-28.12,20.65,5.0,58.039,,,,NaN,,,,0 / 0,589,2020-10-20 19:54:45:157
-5.4872,4.0593,8.8553,-3.636,4.5201,7.9069,-1.8584,-0.4519,0.964,-27.07,145.08,2.06,1.0,30.79,-29.0,-28.39,248.96,-28.12,20.65,5.0,58.039,,,,NaN,,,,0 / 0,593,2020-10-20 19:54:45:161
-5.4872,4.0593,8.8553,-3.636,4.5201,7.9069,-1.8584,-0.4519,0.964,-27.07,145.08,2.06,1.0,30.79,-29.0,-28.39,248.96,-28.12,20.65,5.0,58.039,,,,NaN,,,,0 / 0,597,2020-10-20 19:54:45:165
-5.4872,4.0593,8.8553,-3.636,4.5201,7.9069,-1.8584,-0.4519,0.964,-19.96,144.58,11.23,1.0,30.79,-29.0,-28.39,248.96,-28.12,20.65,5.0,58.039,,,,NaN,,,,0 / 0,605,2020-10-20 19:54:45:173
-5.4872,4.0593,8.8553,-3.636,4.5201,7.9069,-1.8584,-0.4519,0.964,-19.96,144.58,11.23,1.0,30.79,-29.0,-28.39,248.96,-28.12,20.65,5.0,58.039,,,,NaN,,,,0 / 0,607,2020-10-20 19:54:45:175
-5.5948,4.636,10.3221,-3.9101,4.4884,7.7933,-1.6887,0.1522,2.5367,-19.96,144.58,11.23,1.0,29.89,-27.8,-26.74,242.39,-27.24,26.64,5.0,58.039,,,,NaN,,,,0 / 0,613,2020-10-20 19:54:45:181
-5.5948,4.636,10.3221,-3.9101,4.4884,7.7933,-1.6887,0.1522,2.5367,9.96,91.46,13.33,1.0,29.89,-27.8,-26.74,242.39,-27.24,26.64,5.0,58.039,,,,NaN,,,,0 / 0,618,2020-10-20 19:54:45:186
-5.5948,4.636,10.3221,-3.9101,4.4884,7.7933,-1.6887,0.1522,2.5367,9.96,91.46,13.33,1.0,29.89,-27.8,-26.74,242.39,-27.24,26.64,5.0,58.039,,,,NaN,,,,0 / 0,623,2020-10-20 19:54:45:191
-2.6206,4.222,7.7785,-4.1095,4.5337,7.6634,1.4864,-0.3088,0.1198,21.37,61.14,8.36,1.0,32.74,-28.25,-26.29,242.39,-27.24,26.64,5.0,58.039,,,,NaN,,,,0 / 0,628,2020-10-20 19:54:45:196
-2.6206,4.222,7.7785,-4.1095,4.5337,7.6634,1.4864,-0.3088,0.1198,21.37,61.14,8.36,1.0,32.74,-28.25,-26.29,242.39,-27.24,26.64,5.0,58.039,,,,NaN,,,,0 / 0,633,2020-10-20 19:54:45:201
-2.6206,4.222,7.7785,-4.1095,4.5337,7.6634,1.4864,-0.3088,0.1198,21.37,61.14,8.36,1.0,32.74,-28.25,-26.29,242.39,-27.24,26.64,5.0,58.039,,,,NaN,,,,0 / 0,638,2020-10-20 19:54:45:206
-2.5009,4.2436,6.2399,-4.2,4.5773,7.588,1.6939,-0.328,-1.3387,19.17,46.62,-2.77,1.0,32.74,-28.25,-26.29,242.39,-27.24,26.64,5.0,58.039,,,,NaN,,,,0 / 0,642,2020-10-20 19:54:45:210
-2.5009,4.2436,6.2399,-4.2,4.5773,7.588,1.6939,-0.328,-1.3387,19.17,46.62,-2.77,1.0,32.44,-27.35,-24.64,247.95,-27.82,28.96,5.0,58.039,,,,NaN,,,,0 / 0,648,2020-10-20 19:54:45:216
-2.5009,4.2436,6.2399,-4.2,4.5773,7.588,1.6939,-0.328,-1.3387,19.17,46.62,-2.77,1.0,32.44,-27.35,-24.64,247.95,-27.82,28.96,5.0,58.039,,,,NaN,,,,0 / 0,653,2020-10-20 19:54:45:221
-3.4581,4.0521,5.1631,-4.2,4.5773,7.588,0.8255,-0.5379,-2.3441,13.18,42.42,-8.76,1.0,32.44,-27.35,-24.64,247.95,-27.82,28.96,5.0,58.039,,,,NaN,,,,0 / 0,658,2020-10-20 19:54:45:226
-3.4581,4.0521,5.1631,-4.3234,4.6035,7.5024,0.8255,-0.5379,-2.3441,13.18,42.42,-8.76,1.0,32.44,-27.35,-24.64,247.95,-27.82,28.96,5.0,58.039,,,,NaN,,,,0 / 0,663,2020-10-20 19:54:45:231
-3.4581,4.0521,5.1631,-4.3234,4.6035,7.5024,0.8255,-0.5379,-2.3441,-2.25,43.47,-1.41,1.0,33.79,-27.2,-22.54,247.95,-27.82,28.96,5.0,58.039,,,,NaN,,,,0 / 0,668,2020-10-20 19:54:45:236
-3.4581,4.0521,5.1631,-4.3234,4.6035,7.5024,0.8255,-0.5379,-2.3441,-2.25,43.47,-1.41,1.0,33.79,-27.2,-22.54,247.95,-27.82,28.96,5.0,58.039,,,,NaN,,,,0 / 0,673,2020-10-20 19:54:45:241
-1.8979,2.8868,4.0696,-4.4061,4.5994,7.4567,2.4911,-1.6948,-3.3581,-2.25,43.47,-1.41,1.0,33.79,-27.2,-22.54,247.95,-27.82,28.96,5.0,58.039,,,,NaN,,,,0 / 0,678,2020-10-20 19:54:45:246
-1.8979,2.8868,4.0696,-4.4061,4.5994,7.4567,2.4911,-1.6948,-3.3581,-26.12,38.81,11.51,1.0,33.79,-27.2,-22.54,247.95,-27.82,28.96,5.0,58.039,,,,NaN,,,,0 / 0,683,2020-10-20 19:54:45:251
-1.8979,2.8868,4.0696,-4.4061,4.5994,7.4567,2.4911,-1.6948,-3.3581,-26.12,38.81,11.51,1.0,33.79,-27.2,-22.54,247.95,-27.82,28.96,5.0,58.039,,,,NaN,,,,0 / 0,688,2020-10-20 19:54:45:256
0.6409,2.6308,4.3113,-4.4584,4.5645,7.447,5.0729,-1.9067,-3.0916,-40.3,28.0,10.18,1.0,34.39,-28.4,-24.19,247.23,-27.74,30.91,5.0,58.039,,,,NaN,,,,0 / 0,692,2020-10-20 19:54:45:260
0.6409,2.6308,4.3113,-4.4584,4.5645,7.447,5.0729,-1.9067,-3.0916,-40.3,28.0,10.18,1.0,34.39,-28.4,-24.19,247.23,-27.74,30.91,5.0,58.039,,,,NaN,,,,0 / 0,697,2020-10-20 19:54:45:265
0.6409,2.6308,4.3113,-4.4584,4.5645,7.447,5.0729,-1.9067,-3.0916,-40.3,28.0,10.18,1.0,34.39,-28.4,-24.19,247.23,-27.74,30.91,5.0,58.039,,,,NaN,,,,0 / 0,703,2020-10-20 19:54:45:271
0.4614,1.8699,3.8232,-4.4842,4.4539,7.4984,4.9057,-2.5444,-3.6086,-61.44,14.59,10.04,1.0,32.29,-29.75,-22.54,247.23,-27.74,30.91,5.0,58.039,,,,NaN,,,,0 / 0,708,2020-10-20 19:54:45:276
0.4614,1.8699,3.8232,-4.4842,4.4539,7.4984,4.9057,-2.5444,-3.6086,-61.44,14.59,10.04,1.0,32.29,-29.75,-22.54,247.23,-27.74,30.91,5.0,58.039,,,,NaN,,,,0 / 0,713,2020-10-20 19:54:45:281
0.4614,1.8699,3.8232,-4.4842,4.4539,7.4984,4.9057,-2.5444,-3.6086,-61.44,14.59,10.04,1.0,32.29,-29.75,-22.54,247.23,-27.74,30.91,5.0,58.039,,,,NaN,,,,0 / 0,717,2020-10-20 19:54:45:285
0.4614,1.8699,3.8232,-4.4842,4.4539,7.4984,4.9057,-2.5444,-3.6086,-61.44,14.59,10.04,1.0,32.29,-29.75,-22.54,247.23,-27.74,30.91,5.0,58.039,,,,NaN,,,,0 / 0,722,2020-10-20 19:54:45:290
1.6171,1.1472,3.1723,-4.4784,4.3176,7.5811,6.0436,-3.1204,-4.321,-86.88,3.92,9.83,1.0,32.29,-29.75,-22.54,247.23,-27.74,30.91,5.0,58.039,,,,NaN,,,,0 / 0,728,2020-10-20 19:54:45:296
1.6171,1.1472,3.1723,-4.4784,4.3176,7.5811,6.0436,-3.1204,-4.321,-86.88,3.92,9.83,1.0,33.04,-28.7,-23.29,239.29,-26.12,30.57,5.0,58.039,,,,NaN,,,,0 / 0,733,2020-10-20 19:54:45:301
1.6171,1.1472,3.1723,-4.4784,4.3176,7.5811,6.0436,-3.1204,-4.321,-115.27,-16.07,-5.78,1.0,33.04,-28.7,-23.29,239.29,-26.12,30.57,5.0,58.039,,,,NaN,,,,0 / 0,740,2020-10-20 19:54:45:308
1.732,0.2308,2.6172,-4.4362,4.027,7.7636,6.0985,-3.733,-5.0245,-115.27,-16.07,-5.78,1.0,33.04,-28.7,-23.29,239.29,-26.12,30.57,5.0,58.039,,,,NaN,,,,0 / 0,743,2020-10-20 19:54:45:311
1.732,0.2308,2.6172,-4.4362,4.027,7.7636,6.0985,-3.733,-5.0245,-133.89,-30.21,-15.93,1.0,33.19,-25.55,-25.69,239.29,-26.12,30.57,5.0,58.039,,,,NaN,,,,0 / 0,748,2020-10-20 19:54:45:316
1.732,0.2308,2.6172,-4.4362,4.027,7.7636,6.0985,-3.733,-5.0245,-133.89,-30.21,-15.93,1.0,33.19,-25.55,-25.69,239.29,-26.12,30.57,5.0,58.039,,,,NaN,,,,0 / 0,752,2020-10-20 19:54:45:320
1.8684,0.3815,4.6272,-4.3793,3.7198,7.947,6.1666,-3.2694,-3.1728,-147.01,-36.79,-27.76,1.0,33.19,-25.55,-25.69,239.29,-26.12,30.57,5.0,58.039,,,,NaN,,,,0 / 0,758,2020-10-20 19:54:45:326
1.8684,0.3815,4.6272,-4.3793,3.7198,7.947,6.1666,-3.2694,-3.1728,-147.01,-36.79,-27.76,1.0,33.19,-25.55,-25.69,239.29,-26.12,30.57,5.0,58.039,,,,NaN,,,,0 / 0,762,2020-10-20 19:54:45:330
1.8684,0.3815,4.6272,-4.3793,3.7198,7.947,6.1666,-3.2694,-3.1728,-147.01,-36.79,-27.76,1.0,33.04,-26.45,-28.39,240.48,-22.29,28.86,5.0,58.039,,,,NaN,,,,0 / 0,768,2020-10-20 19:54:45:336
1.8684,0.3815,4.6272,-4.3793,3.7198,7.947,6.1666,-3.2694,-3.1728,-147.01,-36.79,-27.76,1.0,33.04,-26.45,-28.39,240.48,-22.29,28.86,5.0,58.039,,,,NaN,,,,0 / 0,773,2020-10-20 19:54:45:341
0.8203,-0.2669,7.398,-4.299,3.2398,8.1971,5.0291,-3.4387,-0.627,-149.36,-41.76,-47.82,1.0,33.04,-26.45,-28.39,240.48,-22.29,28.86,5.0,58.039,,,,NaN,,,,0 / 0,778,2020-10-20 19:54:45:346
0.8203,-0.2669,7.398,-4.299,3.2398,8.1971,5.0291,-3.4387,-0.627,-149.36,-41.76,-47.82,1.0,33.04,-26.45,-28.39,240.48,-22.29,28.86,5.0,58.039,,,,NaN,,,,0 / 0,782,2020-10-20 19:54:45:350
0.8203,-0.2669,7.398,-4.299,3.2398,8.1971,5.0291,-3.4387,-0.627,-149.36,-41.76,-47.82,1.0,33.04,-26.45,-28.39,240.48,-22.29,28.86,5.0,58.039,,,,NaN,,,,0 / 0,788,2020-10-20 19:54:45:356
0.9998,-0.7718,8.3911,-4.2347,2.8824,8.3624,5.1404,-3.5902,0.2143,-130.6,-44.91,-59.19,1.0,34.84,-22.1,-28.39,240.48,-22.29,28.86,5.0,58.039,,,,NaN,,,,0 / 0,793,2020-10-20 19:54:45:361
0.9998,-0.7718,8.3911,-4.2347,2.8824,8.3624,5.1404,-3.5902,0.2143,-130.6,-44.91,-59.19,1.0,34.84,-22.1,-28.39,240.48,-22.29,28.86,5.0,58.039,,,,NaN,,,,0 / 0,798,2020-10-20 19:54:45:366
0.9998,-0.7718,8.3911,-4.1788,2.5488,8.4977,4.2509,-3.5508,-0.0379,-107.78,-41.55,-78.51,1.0,34.84,-22.1,-28.39,240.48,-22.29,28.86,5.0,58.039,,,,NaN,,,,0 / 0,802,2020-10-20 19:54:45:370
-0.4192,-1.1642,7.9101,-4.1788,2.5488,8.4977,4.2509,-3.5508,-0.0379,-107.78,-41.55,-78.51,1.0,33.34,-22.4,-29.14,237.54,-15.06,26.19,5.0,58.039,,,,NaN,,,,0 / 0,808,2020-10-20 19:54:45:376
-0.4192,-1.1642,7.9101,-4.1788,2.5488,8.4977,4.2509,-3.5508,-0.0379,-96.68,-34.97,-89.5,1.0,33.34,-22.4,-29.14,237.54,-15.06,26.19,5.0,58.039,,,,NaN,,,,0 / 0,813,2020-10-20 19:54:45:381
-0.4192,-1.1642,7.9101,-4.1503,2.233,8.5999,2.4908,-3.6107,-1.4464,-96.68,-34.97,-89.5,1.0,33.34,-22.4,-29.14,237.54,-15.06,26.19,5.0,58.039,,,,NaN,,,,0 / 0,817,2020-10-20 19:54:45:385
-2.0128,-1.5471,6.4098,-4.1503,2.233,8.5999,2.4908,-3.6107,-1.4464,-91.57,-26.43,-95.52,1.0,33.34,-22.4,-29.14,237.54,-15.06,26.19,5.0,58.039,,,,NaN,,,,0 / 0,823,2020-10-20 19:54:45:391
-2.0128,-1.5471,6.4098,-4.1503,2.233,8.5999,2.4908,-3.6107,-1.4464,-91.57,-26.43,-95.52,1.0,33.04,-18.35,-32.74,237.54,-15.06,26.19,5.0,58.039,,,,NaN,,,,0 / 0,828,2020-10-20 19:54:45:396
-2.0128,-1.5471,6.4098,-4.1504,1.9203,8.6751,1.2885,-3.4249,-3.1751,-91.57,-26.43,-95.52,1.0,33.04,-18.35,-32.74,237.54,-15.06,26.19,5.0,58.039,,,,NaN,,,,0 / 0,833,2020-10-20 19:54:45:401
-3.001,-1.5734,4.7037,-4.1504,1.9203,8.6751,1.2885,-3.4249,-3.1751,-93.64,-18.94,-98.29,1.0,33.04,-18.35,-32.74,237.54,-15.06,26.19,5.0,58.039,,,,NaN,,,,0 / 0,837,2020-10-20 19:54:45:405
-3.001,-1.5734,4.7037,-4.1504,1.9203,8.6751,1.2885,-3.4249,-3.1751,-93.64,-18.94,-98.29,1.0,33.04,-18.35,-32.74,237.54,-15.06,26.19,5.0,58.039,,,,NaN,,,,0 / 0,843,2020-10-20 19:54:45:411
-3.001,-1.5734,4.7037,-4.1566,1.5915,8.7384,0.5236,-3.317,-4.9867,-102.39,-19.78,-98.22,1.0,33.34,-16.25,-31.99,241.28,-9.34,25.44,5.0,58.039,,,,NaN,,,,0 / 0,848,2020-10-20 19:54:45:416
-3.7883,-1.9156,2.945,-4.1566,1.5915,8.7384,0.5236,-3.317,-4.9867,-102.39,-19.78,-98.22,1.0,33.34,-16.25,-31.99,241.28,-9.34,25.44,5.0,58.039,,,,NaN,,,,0 / 0,853,2020-10-20 19:54:45:421
-3.7883,-1.9156,2.945,-4.1566,1.5915,8.7384,0.5236,-3.317,-4.9867,-102.39,-19.78,-98.22,1.0,33.34,-16.25,-31.99,241.28,-9.34,25.44,5.0,58.039,,,,NaN,,,,0 / 0,858,2020-10-20 19:54:45:426
-3.7883,-1.9156,2.945,-4.1604,1.2148,8.7969,-0.274,-3.3238,-6.3664,-128.81,-15.86,-96.78,1.0,33.34,-16.25,-31.99,241.28,-9.34,25.44,5.0,58.039,,,,NaN,,,,0 / 0,862,2020-10-20 19:54:45:430
-4.4917,-2.2769,2.0932,-4.1604,1.2148,8.7969,-0.274,-3.3238,-6.3664,-128.81,-15.86,-96.78,1.0,35.44,-14.6,-33.64,241.28,-9.34,25.44,5.0,58.039,,,,NaN,,,,0 / 0,868,2020-10-20 19:54:45:436
-4.4917,-2.2769,2.0932,-4.1604,1.2148,8.7969,-0.274,-3.3238,-6.3664,-128.81,-15.86,-96.78,1.0,35.44,-14.6,-33.64,241.28,-9.34,25.44,5.0,58.039,,,,NaN,,,,0 / 0,873,2020-10-20 19:54:45:441
-4.4917,-2.2769,2.0932,-4.1742,0.9215,8.826,-0.5205,-3.2628,-6.3239,-153.03,-4.17,-94.47,1.0,35.44,-14.6,-33.64,241.28,-9.34,25.44,5.0,58.039,,,,NaN,,,,0 / 0,878,2020-10-20 19:54:45:446
-4.2405,-2.9636,2.9905,-4.1742,0.9215,8.826,-0.5205,-3.2628,-6.3239,-153.03,-4.17,-94.47,1.0,35.44,-14.6,-33.64,241.28,-9.34,25.44,5.0,58.039,,,,NaN,,,,0 / 0,883,2020-10-20 19:54:45:451
-4.2405,-2.9636,2.9905,-4.1742,0.9215,8.826,-0.5205,-3.2628,-6.3239,-184.54,16.38,-94.12,1.0,35.44,-14.6,-33.64,241.28,-9.34,25.44,5.0,58.039,,,,NaN,,,,0 / 0,887,2020-10-20 19:54:45:455
-3.7595,-3.9423,3.9285,-4.2426,0.2349,8.8383,0.339,-4.1692,-4.6098,-184.54,16.38,-94.12,1.0,36.34,-11.15,-35.29,249.62,-5.39,25.31,5.0,50.943,,,,NaN,,,,0 / 0,893,2020-10-20 19:54:45:461
-3.7595,-3.9423,3.9285,-4.2426,0.2349,8.8383,0.339,-4.1692,-4.6098,-198.85,26.32,-98.22,1.0,36.34,-11.15,-35.29,249.62,-5.39,25.31,5.0,50.943,,,,NaN,,,,0 / 0,897,2020-10-20 19:54:45:465
-3.7595,-3.9423,3.9285,-4.2426,0.2349,8.8383,0.339,-4.1692,-4.6098,-198.85,26.32,-98.22,1.0,36.34,-11.15,-35.29,249.62,-5.39,25.31,5.0,50.943,,,,NaN,,,,0 / 0,903,2020-10-20 19:54:45:471
-4.006,-4.9545,5.4814,-4.3104,-0.3469,8.8017,0.1527,-4.6198,-3.0106,-207.49,30.94,-102.7,1.0,36.34,-11.15,-35.29,249.62,-5.39,25.31,5.0,50.943,,,,NaN,,,,0 / 0,908,2020-10-20 19:54:45:476
-4.006,-4.9545,5.4814,-4.3104,-0.3469,8.8017,0.1527,-4.6198,-3.0106,-207.49,30.94,-102.7,1.0,36.34,-11.15,-35.29,249.62,-5.39,25.31,5.0,50.943,,,,NaN,,,,0 / 0,913,2020-10-20 19:54:45:481
-4.006,-4.9545,5.4814,-4.3104,-0.3469,8.8017,0.1527,-4.6198,-3.0106,-207.49,30.94,-102.7,1.0,37.24,-10.55,-34.09,249.62,-5.39,25.31,5.0,50.943,,,,NaN,,,,0 / 0,918,2020-10-20 19:54:45:486
-4.006,-4.9545,5.4814,-4.3104,-0.3469,8.8017,0.1527,-4.6198,-3.0106,-212.22,27.68,-105.11,1.0,37.24,-10.55,-34.09,249.62,-5.39,25.31,5.0,50.943,,,,NaN,,,,0 / 0,923,2020-10-20 19:54:45:491
-5.9179,-5.1435,6.8501,-4.3755,-1.1499,8.7008,-1.6987,-4.0346,-1.5398,-213.09,24.99,-102.49,1.0,37.24,-10.55,-34.09,249.62,-5.39,25.31,5.0,50.943,,,,NaN,,,,0 / 0,928,2020-10-20 19:54:45:496
-5.9179,-5.1435,6.8501,-4.3755,-1.1499,8.7008,-1.6987,-4.0346,-1.5398,-213.09,24.99,-102.49,1.0,35.59,-5.6,-34.99,234.97,6.73,26.7,5.0,50.943,,,,NaN,,,,0 / 0,933,2020-10-20 19:54:45:501
-5.9179,-5.1435,6.8501,-4.3755,-1.1499,8.7008,-1.6987,-4.0346,-1.5398,-213.09,24.99,-102.49,1.0,35.59,-5.6,-34.99,234.97,6.73,26.7,5.0,50.943,,,,NaN,,,,0 / 0,938,2020-10-20 19:54:45:506
-7.4038,-5.6555,7.4722,-4.4055,-1.7423,8.5864,-3.1542,-3.9749,-0.8104,-211.52,28.77,-98.67,1.0,35.59,-5.6,-34.99,234.97,6.73,26.7,5.0,50.943,,,,NaN,,,,0 / 0,942,2020-10-20 19:54:45:510
-7.4038,-5.6555,7.4722,-4.4055,-1.7423,8.5864,-3.1542,-3.9749,-0.8104,-211.52,28.77,-98.67,1.0,35.89,0.25,-36.49,234.97,6.73,26.7,5.0,50.943,,,,NaN,,,,0 / 0,948,2020-10-20 19:54:45:516
-7.4038,-5.6555,7.4722,-4.4055,-1.7423,8.5864,-3.1542,-3.9749,-0.8104,-204.2,47.56,-89.36,1.0,35.89,0.25,-36.49,234.97,6.73,26.7,5.0,50.943,,,,NaN,,,,0 / 0,953,2020-10-20 19:54:45:521
-8.0259,-6.9429,7.8383,-4.4816,-2.4884,8.3602,-3.6975,-4.5396,-0.2362,-204.2,47.56,-89.36,1.0,35.89,0.25,-36.49,234.97,6.73,26.7,5.0,50.943,,,,NaN,,,,0 / 0,957,2020-10-20 19:54:45:525
-8.0259,-6.9429,7.8383,-4.4816,-2.4884,8.3602,-3.6975,-4.5396,-0.2362,-204.2,47.56,-89.36,1.0,35.89,0.25,-36.49,234.97,6.73,26.7,5.0,50.943,,,,NaN,,,,0 / 0,963,2020-10-20 19:54:45:531
-8.0259,-6.9429,7.8383,-4.4816,-2.4884,8.3602,-3.6975,-4.5396,-0.2362,-193.32,87.67,-84.95,1.0,36.49,1.9,-34.39,237.49,14.7,28.19,5.0,50.943,,,,NaN,,,,0 / 0,968,2020-10-20 19:54:45:536
-8.0259,-6.9429,7.8383,-4.4816,-2.4884,8.3602,-3.6975,-4.5396,-0.2362,-193.32,87.67,-84.95,1.0,36.49,1.9,-34.39,237.49,14.7,28.19,5.0,50.943,,,,NaN,,,,0 / 0,972,2020-10-20 19:54:45:540
-9.2535,-7.9766,2.6244,-4.6304,-3.0114,8.1032,-4.7796,-5.067,-5.2049,-200.99,169.54,-89.71,1.0,36.49,1.9,-34.39,237.49,14.7,28.19,5.0,50.943,,,,NaN,,,,0 / 0,978,2020-10-20 19:54:45:546
-9.2535,-7.9766,2.6244,-4.6304,-3.0114,8.1032,-4.7796,-5.067,-5.2049,-200.99,169.54,-89.71,1.0,36.49,1.9,-34.39,237.49,14.7,28.19,5.0,50.943,,,,NaN,,,,0 / 0,983,2020-10-20 19:54:45:551
-6.4706,-8.381,6.0724,-4.9268,-3.5607,7.6953,-1.7078,-4.9388,-1.3667,-211.84,194.53,-101.68,1.0,36.49,1.9,-34.39,237.49,14.7,28.19,5.0,50.943,,,,NaN,,,,0 / 0,988,2020-10-20 19:54:45:556
-6.4706,-8.381,6.0724,-4.9268,-3.5607,7.6953,-1.7078,-4.9388,-1.3667,-211.84,194.53,-101.68,1.0,37.39,6.1,-33.94,237.49,14.7,28.19,5.0,50.943,,,,NaN,,,,0 / 0,992,2020-10-20 19:54:45:560
-6.4706,-8.381,6.0724,-4.9268,-3.5607,7.6953,-1.7078,-4.9388,-1.3667,-211.84,194.53,-101.68,1.0,37.39,6.1,-33.94,237.49,14.7,28.19,5.0,50.943,,,,NaN,,,,0 / 0,997,2020-10-20 19:54:45:565
-7.3296,-8.2518,8.0752,-5.2289,-4.1406,7.1892,-2.27,-4.2452,1.1188,-225.28,228.27,-122.65,1.0,37.39,6.1,-33.94,237.49,14.7,28.19,5.0,50.943,,,,NaN,,,,0 / 0,1003,2020-10-20 19:54:45:571
-7.3296,-8.2518,8.0752,-5.2289,-4.1406,7.1892,-2.27,-4.2452,1.1188,-225.28,228.27,-122.65,1.0,37.39,6.1,-33.94,237.49,14.7,28.19,5.0,50.943,,,,NaN,,,,0 / 0,1009,2020-10-20 19:54:45:577
-7.3296,-8.2518,8.0752,-5.2289,-4.1406,7.1892,-2.27,-4.2452,1.1188,-215.76,214.69,-133.18,1.0,39.49,8.5,-30.04,227.62,24.98,36.03,5.0,50.943,,,,NaN,,,,0 / 0,1012,2020-10-20 19:54:45:580
-9.4066,-8.7878,9.6999,-5.459,-4.7031,6.6521,-4.1123,-4.2265,3.2486,-215.76,214.69,-133.18,1.0,39.49,8.5,-30.04,227.62,24.98,36.03,5.0,50.943,,,,NaN,,,,0 / 0,1018,2020-10-20 19:54:45:586
-9.4066,-8.7878,9.6999,-5.459,-4.7031,6.6521,-4.1123,-4.2265,3.2486,-197.9,194.25,-130.17,1.0,39.49,8.5,-30.04,227.62,24.98,36.03,5.0,50.943,,,,NaN,,,,0 / 0,1023,2020-10-20 19:54:45:591
-9.4066,-8.7878,9.6999,-5.459,-4.7031,6.6521,-4.1123,-4.2265,3.2486,-197.9,194.25,-130.17,1.0,39.49,8.5,-30.04,227.62,24.98,36.03,5.0,50.943,,,,NaN,,,,0 / 0,1027,2020-10-20 19:54:45:595
-10.1292,-9.0223,10.4632,-5.5945,-5.1854,6.163,-4.6877,-3.9787,4.4688,-197.9,194.25,-130.17,3.0,40.54,14.35,-25.39,227.62,24.98,36.03,5.0,50.943,,,,NaN,,,,0 / 0,1033,2020-10-20 19:54:45:601
-10.1292,-9.0223,10.4632,-5.5945,-5.1854,6.163,-4.6877,-3.9787,4.4688,-167.45,140.84,-112.57,3.0,40.54,14.35,-25.39,227.62,24.98,36.03,5.0,50.943,,,,NaN,,,,0 / 0,1038,2020-10-20 19:54:45:606
-10.7083,-8.2518,10.48,-5.6357,-5.5665,5.7813,-5.4188,-2.4819,4.7613,-167.45,140.84,-112.57,3.0,40.54,14.35,-25.39,227.62,24.98,36.03,5.0,50.943,,,,NaN,,,,0 / 0,1043,2020-10-20 19:54:45:611
-10.7083,-8.2518,10.48,-5.6357,-5.5665,5.7813,-5.4188,-2.4819,4.7613,-167.45,140.84,-112.57,3.0,40.54,14.35,-25.39,227.62,24.98,36.03,5.0,50.943,,,,NaN,,,,0 / 0,1048,2020-10-20 19:54:45:616
-10.7083,-8.2518,10.48,-5.6357,-5.5665,5.7813,-5.4188,-2.4819,4.7613,-137.28,75.56,-84.04,3.0,43.84,17.65,-23.59,230.02,34.58,44.27,5.0,50.943,,,,NaN,,,,0 / 0,1053,2020-10-20 19:54:45:621
-10.481,-7.778,10.3125,-5.6261,-5.7647,5.5933,-4.9826,-2.1442,4.8462,-137.28,75.56,-84.04,3.0,43.84,17.65,-23.59,230.02,34.58,44.27,5.0,50.943,,,,NaN,,,,0 / 0,1058,2020-10-20 19:54:45:626
-10.481,-7.778,10.3125,-5.6261,-5.7647,5.5933,-4.9826,-2.1442,4.8462,-107.6,28.52,-61.92,3.0,43.84,17.65,-23.59,230.02,34.58,44.27,5.0,50.943,,,,NaN,,,,0 / 0,1063,2020-10-20 19:54:45:631
-10.481,-7.778,10.3125,-5.6261,-5.7647,5.5933,-4.9826,-2.1442,4.8462,-107.6,28.52,-61.92,3.0,43.84,17.65,-23.59,230.02,34.58,44.27,5.0,50.943,,,,NaN,,,,0 / 0,1067,2020-10-20 19:54:45:635
-10.481,-7.778,10.3125,-5.6261,-5.7647,5.5933,-4.1304,-2.435,3.6617,-107.6,28.52,-61.92,3.0,42.79,17.65,-20.59,230.02,34.58,44.27,5.0,50.943,,,,NaN,,,,0 / 0,1073,2020-10-20 19:54:45:641
-9.062,-8.4408,8.3288,-5.5604,-6.065,5.3356,-4.1304,-2.435,3.6617,-91.4,21.21,-56.15,3.0,42.79,17.65,-20.59,230.02,34.58,44.27,5.0,50.943,,,,NaN,,,,0 / 0,1078,2020-10-20 19:54:45:646
-9.062,-8.4408,8.3288,-5.5604,-6.065,5.3356,-4.1304,-2.435,3.6617,-91.4,21.21,-56.15,3.0,42.79,17.65,-20.59,230.02,34.58,44.27,5.0,50.943,,,,NaN,,,,0 / 0,1082,2020-10-20 19:54:45:650
-9.062,-8.4408,8.3288,-5.5604,-6.065,5.3356,-2.4378,-2.8093,1.707,-91.4,21.21,-56.15,3.0,42.79,17.65,-20.59,230.02,34.58,44.27,5.0,50.943,,,,NaN,,,,0 / 0,1088,2020-10-20 19:54:45:656
-7.5522,-9.0151,6.0916,-5.5032,-6.2589,5.1683,-2.4378,-2.8093,1.707,-79.5,31.01,-63.99,3.0,43.24,21.4,-20.74,227.35,39.66,46.8,5.0,50.943,,,,NaN,,,,0 / 0,1093,2020-10-20 19:54:45:661
-7.5522,-9.0151,6.0916,-5.5032,-6.2589,5.1683,-2.4405,-2.4349,0.2922,-79.5,31.01,-63.99,3.0,43.24,21.4,-20.74,227.35,39.66,46.8,5.0,50.943,,,,NaN,,,,0 / 0,1098,2020-10-20 19:54:45:666
-7.5522,-9.0151,6.0916,-5.5032,-6.2589,5.1683,-2.4405,-2.4349,0.2922,-79.5,31.01,-63.99,3.0,43.24,21.4,-20.74,227.35,39.66,46.8,5.0,50.943,,,,NaN,,,,0 / 0,1102,2020-10-20 19:54:45:670
-7.5522,-9.0151,6.0916,-5.5032,-6.2589,5.1683,-2.4405,-2.4349,0.2922,-79.5,31.01,-63.99,3.0,43.24,21.4,-20.74,227.35,39.66,46.8,5.0,50.943,,,,NaN,,,,0 / 0,1107,2020-10-20 19:54:45:675
-8.2006,-8.4575,5.1871,-5.4411,-6.473,4.9664,-2.4405,-2.4349,0.2922,-86.01,53.9,-82.92,3.0,42.34,21.25,-18.49,227.35,39.66,46.8,5.0,50.943,,,,NaN,,,,0 / 0,1112,2020-10-20 19:54:45:680
-8.2006,-8.4575,5.1871,-5.4411,-6.473,4.9664,-3.5879,-1.7755,0.9335,-86.01,53.9,-82.92,3.0,42.34,21.25,-18.49,227.35,39.66,46.8,5.0,50.943,,,,NaN,,,,0 / 0,1118,2020-10-20 19:54:45:686
-8.2006,-8.4575,5.1871,-5.4411,-6.473,4.9664,-3.5879,-1.7755,0.9335,-86.01,53.9,-82.92,3.0,42.34,21.25,-18.49,227.35,39.66,46.8,5.0,50.943,,,,NaN,,,,0 / 0,1123,2020-10-20 19:54:45:691
-9.5885,-8.2494,6.5893,-5.3486,-6.7903,4.632,-4.7243,-1.3322,2.572,-95.0,71.26,-98.29,3.0,42.34,21.25,-18.49,227.35,39.66,46.8,5.0,50.943,,,,NaN,,,,0 / 0,1128,2020-10-20 19:54:45:696
-9.5885,-8.2494,6.5893,-5.3486,-6.7903,4.632,-4.7243,-1.3322,2.572,-95.0,71.26,-98.29,3.0,42.34,25.3,-18.79,226.28,43.82,49.11,5.0,50.943,,,,NaN,,,,0 / 0,1133,2020-10-20 19:54:45:701
-9.5885,-8.2494,6.5893,-5.3486,-6.7903,4.632,-4.7243,-1.3322,2.572,-95.0,71.26,-98.29,3.0,42.34,25.3,-18.79,226.28,43.82,49.11,5.0,50.943,,,,NaN,,,,0 / 0,1138,2020-10-20 19:54:45:706
-10.5839,-7.711,7.824,-5.2582,-7.0202,4.3863,-5.3942,-0.7823,3.4949,-89.37,60.2,-98.95,3.0,42.34,25.3,-18.79,226.28,43.82,49.11,5.0,50.943,,,,NaN,,,,0 / 0,1142,2020-10-20 19:54:45:710
-10.5839,-7.711,7.824,-5.2582,-7.0202,4.3863,-5.3942,-0.7823,3.4949,-89.37,60.2,-98.95,3.0,42.34,25.3,-18.79,226.28,43.82,49.11,5.0,50.943,,,,NaN,,,,0 / 0,1148,2020-10-20 19:54:45:716
-11.4501,-7.0099,7.824,-5.1516,-7.2191,4.1853,-6.356,0.1287,3.6854,-74.77,41.82,-92.2,6.0,40.84,25.3,-15.94,226.28,43.82,49.11,5.0,50.943,,,,NaN,,,,0 / 0,1153,2020-10-20 19:54:45:721
-11.4501,-7.0099,7.824,-5.1516,-7.2191,4.1853,-6.356,0.1287,3.6854,-74.77,41.82,-92.2,6.0,40.84,25.3,-15.94,226.28,43.82,49.11,5.0,50.943,,,,NaN,,,,0 / 0,1158,2020-10-20 19:54:45:726
-11.4501,-7.0099,7.824,-5.1516,-7.2191,4.1853,-6.356,0.1287,3.6854,-74.77,41.82,-92.2,6.0,40.84,25.3,-15.94,226.28,43.82,49.11,5.0,50.943,,,,NaN,,,,0 / 0,1162,2020-10-20 19:54:45:730
-12.0842,-7.1559,7.4722,-5.0542,-7.3803,4.0196,-7.0769,0.156,3.4899,-62.42,37.2,-76.69,6.0,40.84,25.3,-15.94,226.28,43.82,49.11,5.0,50.943,,,,NaN,,,,0 / 0,1168,2020-10-20 19:54:45:736
-12.0842,-7.1559,7.4722,-5.0542,-7.3803,4.0196,-7.0769,0.156,3.4899,-62.42,37.2,-76.69,6.0,40.69,25.75,-15.34,224.43,48.81,51.5,5.0,50.943,,,,NaN,,,,0 / 0,1173,2020-10-20 19:54:45:741
-12.0842,-7.1559,7.4722,-5.0542,-7.3803,4.0196,-7.0769,0.156,3.4899,-62.42,37.2,-76.69,6.0,40.69,25.75,-15.34,224.43,48.81,51.5,5.0,50.943,,,,NaN,,,,0 / 0,1177,2020-10-20 19:54:45:745
-11.4118,-7.2468,6.8812,-4.9885,-7.5024,3.873,-6.4607,0.1993,3.0373,-47.58,44.48,-60.84,6.0,40.69,25.75,-15.34,224.43,48.81,51.5,5.0,50.943,,,,NaN,,,,0 / 0,1182,2020-10-20 19:54:45:750
-11.4118,-7.2468,6.8812,-4.9885,-7.5024,3.873,-6.4607,0.1993,3.0373,-47.58,44.48,-60.84,6.0,40.69,25.75,-15.34,224.43,48.81,51.5,5.0,50.943,,,,NaN,,,,0 / 0,1189,2020-10-20 19:54:45:757
-11.4118,-7.2468,6.8812,-4.9885,-7.5024,3.873,-6.4607,0.1993,3.0373,-40.47,55.75,-54.68,6.0,41.14,30.25,-15.34,224.43,48.81,51.5,5.0,50.943,,,,NaN,,,,0 / 0,1193,2020-10-20 19:54:45:761
-10.4307,-7.0099,5.9336,-4.9524,-7.5989,3.7283,-5.5087,0.5424,2.2282,-40.47,55.75,-54.68,6.0,41.14,30.25,-15.34,224.43,48.81,51.5,5.0,50.943,,,,NaN,,,,0 / 0,1197,2020-10-20 19:54:45:765
-10.4307,-7.0099,5.9336,-4.9524,-7.5989,3.7283,-5.5087,0.5424,2.2282,-40.47,55.75,-54.68,6.0,41.14,30.25,-15.34,224.43,48.81,51.5,5.0,50.943,,,,NaN,,,,0 / 0,1203,2020-10-20 19:54:45:771
-9.9498,-6.8185,5.5699,-4.9393,-7.6583,3.6227,-5.0373,0.7983,1.9669,-36.03,76.61,-52.93,6.0,39.49,29.35,-12.19,228.16,51.35,53.74,5.0,50.943,,,,NaN,,,,0 / 0,1212,2020-10-20 19:54:45:780
-9.9498,-6.8185,5.5699,-4.9393,-7.6583,3.6227,-5.0373,0.7983,1.9669,-36.03,76.61,-52.93,6.0,39.49,29.35,-12.19,228.16,51.35,53.74,5.0,50.943,,,,NaN,,,,0 / 0,1213,2020-10-20 19:54:45:781
-9.9498,-6.8185,5.5699,-4.9393,-7.6583,3.6227,-5.0373,0.7983,1.9669,-36.03,76.61,-52.93,6.0,39.49,29.35,-12.19,228.16,51.35,53.74,5.0,50.943,,,,NaN,,,,0 / 0,1218,2020-10-20 19:54:45:786
-9.9498,-6.8185,5.5699,-4.9393,-7.6583,3.6227,-5.0373,0.7983,1.9669,-37.46,96.18,-52.65,6.0,39.49,29.35,-12.19,228.16,51.35,53.74,5.0,50.943,,,,NaN,,,,0 / 0,1223,2020-10-20 19:54:45:791
-9.7201,-7.5124,5.3235,-4.9288,-7.7767,3.3765,-4.8112,0.2328,1.9606,-37.46,96.18,-52.65,6.0,39.49,29.35,-12.19,228.16,51.35,53.74,5.0,29.376,,,,NaN,,,,0 / 0,1228,2020-10-20 19:54:45:796
-9.7201,-7.5124,5.3235,-4.9288,-7.7767,3.3765,-4.8112,0.2328,1.9606,-36.94,101.25,-50.72,6.0,38.89,30.55,-11.29,228.16,51.35,53.74,5.0,29.376,,,,NaN,,,,0 / 0,1232,2020-10-20 19:54:45:800
-9.7201,-7.5124,5.3235,-4.9288,-7.7767,3.3765,-4.8112,0.2328,1.9606,-36.94,101.25,-50.72,6.0,38.89,30.55,-11.29,228.16,51.35,53.74,5.0,29.376,,,,NaN,,,,0 / 0,1238,2020-10-20 19:54:45:806
-9.6483,-7.5602,5.1129,-4.9246,-7.8598,3.1846,-4.7382,0.2764,1.9377,-38.16,93.1,-47.68,6.0,38.89,30.55,-11.29,228.16,51.35,53.74,5.0,29.376,,,,NaN,,,,0 / 0,1244,2020-10-20 19:54:45:812
-9.6483,-7.5602,5.1129,-4.9246,-7.8598,3.1846,-4.7382,0.2764,1.9377,-38.16,93.1,-47.68,6.0,38.89,30.55,-11.29,228.16,51.35,53.74,5.0,29.376,,,,NaN,,,,0 / 0,1248,2020-10-20 19:54:45:816
-9.6483,-7.5602,5.1129,-4.9246,-7.8598,3.1846,-4.7382,0.2764,1.9377,-38.16,93.1,-47.68,6.0,39.04,31.15,-9.04,229.52,53.27,57.11,5.0,29.376,,,,NaN,,,,0 / 0,1253,2020-10-20 19:54:45:821
-9.6483,-7.5602,5.1129,-4.9246,-7.8598,3.1846,-4.7382,0.2764,1.9377,-38.16,93.1,-47.68,6.0,39.04,31.15,-9.04,229.52,53.27,57.11,5.0,29.376,,,,NaN,,,,0 / 0,1258,2020-10-20 19:54:45:826
-9.9043,-7.7828,5.077,-4.9126,-7.9378,3.0045,-5.0847,-0.1909,2.1553,-45.13,71.57,-40.99,6.0,39.04,31.15,-9.04,229.52,53.27,57.11,5.0,29.376,,,,NaN,,,,0 / 0,1263,2020-10-20 19:54:45:831
-9.9043,-7.7828,5.077,-4.9126,-7.9378,3.0045,-5.0847,-0.1909,2.1553,-45.13,71.57,-40.99,6.0,39.04,31.15,-9.04,229.52,53.27,57.11,5.0,29.376,,,,NaN,,,,0 / 0,1268,2020-10-20 19:54:45:836
-9.9043,-7.7828,5.077,-4.9126,-7.9378,3.0045,-5.0847,-0.1909,2.1553,-45.13,71.57,-40.99,6.0,39.04,31.15,-9.04,229.52,53.27,57.11,5.0,29.376,,,,NaN,,,,0 / 0,1272,2020-10-20 19:54:45:840
-10.7585,-9.0462,5.0722,-4.9026,-8.0268,2.7761,-5.8553,-1.0183,2.2958,-54.47,53.27,-24.4,8.0,40.39,33.1,-7.69,229.52,53.27,57.11,5.0,29.376,,,,NaN,,,,0 / 0,1277,2020-10-20 19:54:45:845
-10.7585,-9.0462,5.0722,-4.9026,-8.0268,2.7761,-5.8553,-1.0183,2.2958,-54.47,53.27,-24.4,8.0,40.39,33.1,-7.69,229.52,53.27,57.11,5.0,29.376,,,,NaN,,,,0 / 0,1283,2020-10-20 19:54:45:851
-10.7585,-9.0462,5.0722,-4.9026,-8.0268,2.7761,-5.8553,-1.0183,2.2958,-54.47,53.27,-24.4,8.0,40.39,33.1,-7.69,229.52,53.27,57.11,5.0,29.376,,,,NaN,,,,0 / 0,1288,2020-10-20 19:54:45:856
-10.6054,-9.6755,4.9119,-4.9231,-8.0717,2.604,-5.6728,-1.588,2.3028,-57.17,45.71,-6.62,8.0,39.64,32.8,-4.84,229.3,55.4,62.12,5.0,29.376,,,,NaN,,,,0 / 0,1292,2020-10-20 19:54:45:860
-10.6054,-9.6755,4.9119,-4.9231,-8.0717,2.604,-5.6728,-1.588,2.3028,-64.62,34.54,9.37,8.0,39.64,32.8,-4.84,229.3,55.4,62.12,5.0,29.376,,,,NaN,,,,0 / 0,1301,2020-10-20 19:54:45:869
-10.6054,-9.6755,4.9119,-4.9231,-8.0717,2.604,-5.6728,-1.588,2.3028,-64.62,34.54,9.37,8.0,39.64,32.8,-4.84,229.3,55.4,62.12,5.0,29.376,,,,NaN,,,,0 / 0,1302,2020-10-20 19:54:45:870
-10.6054,-9.6755,4.9119,-4.9231,-8.0717,2.604,-4.643,-2.2729,1.0735,-64.62,34.54,9.37,8.0,39.64,32.8,-4.84,229.3,55.4,62.12,5.0,29.376,,,,NaN,,,,0 / 0,1307,2020-10-20 19:54:45:875
-9.6507,-10.4125,3.4547,-4.9862,-8.1047,2.371,-4.643,-2.2729,1.0735,-77.29,32.2,20.43,8.0,39.64,33.1,-7.39,229.3,55.4,62.12,5.0,29.376,,,,NaN,,,,0 / 0,1313,2020-10-20 19:54:45:881
-9.6507,-10.4125,3.4547,-4.9862,-8.1047,2.371,-4.643,-2.2729,1.0735,-77.29,32.2,20.43,8.0,39.64,33.1,-7.39,229.3,55.4,62.12,5.0,29.376,,,,NaN,,,,0 / 0,1318,2020-10-20 19:54:45:886
-7.277,-10.9389,2.8254,-5.0591,-8.1197,2.1554,-2.1884,-2.7719,0.6574,-92.34,32.9,28.03,8.0,39.64,33.1,-7.39,229.3,55.4,62.12,5.0,29.376,,,,NaN,,,,0 / 0,1322,2020-10-20 19:54:45:890
-7.277,-10.9389,2.8254,-5.0591,-8.1197,2.1554,-2.1884,-2.7719,0.6574,-92.34,32.9,28.03,8.0,39.64,33.1,-7.39,229.3,55.4,62.12,5.0,29.376,,,,NaN,,,,0 / 0,1327,2020-10-20 19:54:45:895
-7.277,-10.9389,2.8254,-5.0591,-8.1197,2.1554,-2.1884,-2.7719,0.6574,-92.34,32.9,28.03,8.0,39.19,29.8,-3.79,219.29,55.89,66.92,5.0,29.376,,,,NaN,,,,0 / 0,1333,2020-10-20 19:54:45:901
-5.2862,-10.9604,2.689,-5.0591,-8.1197,2.1554,-0.1176,-2.7624,0.7968,-113.76,51.2,24.39,8.0,39.19,29.8,-3.79,219.29,55.89,66.92,5.0,29.376,,,,NaN,,,,0 / 0,1338,2020-10-20 19:54:45:906
-5.2862,-10.9604,2.689,-5.1555,-8.1517,1.7725,-0.1176,-2.7624,0.7968,-113.76,51.2,24.39,8.0,39.19,29.8,-3.79,219.29,55.89,66.92,5.0,29.376,,,,NaN,,,,0 / 0,1343,2020-10-20 19:54:45:911
-5.2862,-10.9604,2.689,-5.1555,-8.1517,1.7725,-0.1176,-2.7624,0.7968,-120.83,62.89,18.79,8.0,39.19,29.8,-3.79,219.29,55.89,66.92,5.0,29.376,,,,NaN,,,,0 / 0,1348,2020-10-20 19:54:45:916
-5.3316,-10.6015,4.1342,-5.1555,-8.1517,1.7725,-0.0967,-2.3667,2.5646,-120.83,62.89,18.79,8.0,39.19,32.35,-3.34,219.29,55.89,66.92,5.0,29.376,,,,NaN,,,,0 / 0,1352,2020-10-20 19:54:45:920
-5.3316,-10.6015,4.1342,-5.2112,-8.1788,1.4563,-0.0967,-2.3667,2.5646,-117.37,53.83,15.99,8.0,39.19,32.35,-3.34,219.29,55.89,66.92,5.0,29.376,,,,NaN,,,,0 / 0,1358,2020-10-20 19:54:45:926
-5.3316,-10.6015,4.1342,-5.2112,-8.1788,1.4563,-0.0967,-2.3667,2.5646,-117.37,53.83,15.99,8.0,39.19,32.35,-3.34,219.29,55.89,66.92,5.0,29.376,,,,NaN,,,,0 / 0,1363,2020-10-20 19:54:45:931
-6.1069,-10.1852,4.2754,-5.2112,-8.1788,1.4563,-0.8157,-1.9259,2.9919,-117.37,53.83,15.99,8.0,39.19,32.35,-3.34,219.29,55.89,66.92,5.0,29.376,,,,NaN,,,,0 / 0,1368,2020-10-20 19:54:45:936
-6.1069,-10.1852,4.2754,-5.2649,-8.1875,1.1901,-0.8157,-1.9259,2.9919,-105.57,27.68,24.35,8.0,39.19,32.35,-3.34,219.29,55.89,66.92,5.0,29.376,,,,NaN,,,,0 / 0,1373,2020-10-20 19:54:45:941
-6.4754,-9.575,3.9069,-5.2649,-8.1875,1.1901,-0.8157,-1.9259,2.9919,-105.57,27.68,24.35,8.0,39.94,32.05,-1.54,204.14,56.6,77.26,5.0,29.376,,,,NaN,,,,0 / 0,1378,2020-10-20 19:54:45:946
-6.4754,-9.575,3.9069,-5.2649,-8.1875,1.1901,-1.1077,-1.3234,2.8504,-105.57,27.68,24.35,8.0,39.94,32.05,-1.54,204.14,56.6,77.26,5.0,29.376,,,,NaN,,,,0 / 0,1382,2020-10-20 19:54:45:950
-6.4754,-9.575,3.9069,-5.349,-8.1601,0.986,-1.1077,-1.3234,2.8504,-93.01,-1.19,47.1,8.0,39.94,32.05,-1.54,204.14,56.6,77.26,5.0,29.376,,,,NaN,,,,0 / 0,1387,2020-10-20 19:54:45:955
-5.2646,-9.2831,3.8591,-5.349,-8.1601,0.986,-1.1077,-1.3234,2.8504,-93.01,-1.19,47.1,6.0,38.89,31.6,0.26,204.14,56.6,77.26,5.0,29.376,,,,NaN,,,,0 / 0,1393,2020-10-20 19:54:45:961
-5.2646,-9.2831,3.8591,-5.4564,-8.1037,0.8536,1.0202,-0.6521,3.0151,-77.22,-26.64,58.9,6.0,38.89,31.6,0.26,204.14,56.6,77.26,5.0,29.376,,,,NaN,,,,0 / 0,1398,2020-10-20 19:54:45:966
-5.2646,-9.2831,3.8591,-5.4564,-8.1037,0.8536,1.0202,-0.6521,3.0151,-77.22,-26.64,58.9,6.0,38.89,31.6,0.26,204.14,56.6,77.26,5.0,29.376,,,,NaN,,,,0 / 0,1402,2020-10-20 19:54:45:970
-1.9386,-6.438,5.0435,-5.4564,-8.1037,0.8536,3.639,1.6982,4.24,-58.6,-16.35,55.57,6.0,38.89,31.6,0.26,204.14,56.6,77.26,5.0,29.376,,,,NaN,,,,0 / 0,1408,2020-10-20 19:54:45:976
-1.9386,-6.438,5.0435,-5.5586,-8.0422,0.7714,3.639,1.6982,4.24,-58.6,-16.35,55.57,6.0,41.44,29.05,1.31,203.29,55.72,81.11,5.0,29.376,,,,NaN,,,,0 / 0,1413,2020-10-20 19:54:45:981
-1.9386,-6.438,5.0435,-5.5586,-8.0422,0.7714,3.639,1.6982,4.24,-58.6,-16.35,55.57,6.0,41.44,29.05,1.31,203.29,55.72,81.11,5.0,29.376,,,,NaN,,,,0 / 0,1417,2020-10-20 19:54:45:985
0.5021,-6.3208,4.4166,-5.5586,-8.0422,0.7714,6.1513,1.7522,3.6949,-26.54,34.82,34.61,6.0,41.44,29.05,1.31,203.29,55.72,81.11,5.0,29.376,,,,NaN,,,,0 / 0,1423,2020-10-20 19:54:45:991
0.5021,-6.3208,4.4166,-5.6207,-8.0071,0.6815,6.1513,1.7522,3.6949,-26.54,34.82,34.61,6.0,41.44,29.05,1.31,203.29,55.72,81.11,5.0,29.376,,,,NaN,,,,0 / 0,1428,2020-10-20 19:54:45:996
0.5021,-6.3208,4.4166,-5.6207,-8.0071,0.6815,6.1513,1.7522,3.6949,-26.54,34.82,34.61,6.0,40.24,31.45,2.21,203.29,55.72,81.11,5.0,29.376,,,,NaN,,,,0 / 0,1432,2020-10-20 19:54:46:000
-1.6036,-9.039,2.5693,-5.6207,-8.0071,0.6815,6.1513,1.7522,3.6949,-39.6,33.21,-1.51,6.0,40.24,31.45,2.21,203.29,55.72,81.11,5.0,29.376,,,,NaN,,,,0 / 0,1438,2020-10-20 19:54:46:006
-1.6036,-9.039,2.5693,-5.6207,-8.0071,0.6815,6.1513,1.7522,3.6949,-39.6,33.21,-1.51,6.0,40.24,31.45,2.21,203.29,55.72,81.11,5.0,29.376,,,,NaN,,,,0 / 0,1443,2020-10-20 19:54:46:011
-1.6036,-9.039,2.5693,-5.6134,-8.0214,0.564,4.0546,-0.9746,1.9628,-59.93,-7.0,-13.27,6.0,40.24,31.45,2.21,203.29,55.72,81.11,5.0,29.376,,,,NaN,,,,0 / 0,1447,2020-10-20 19:54:46:015
-7.2985,-7.4406,0.9087,-5.6134,-8.0214,0.564,4.0546,-0.9746,1.9628,-59.93,-7.0,-13.27,6.0,40.54,30.7,2.21,201.61,54.88,84.26,5.0,29.376,,,,NaN,,,,0 / 0,1453,2020-10-20 19:54:46:021
-7.2985,-7.4406,0.9087,-5.5981,-8.0387,0.4605,-2.731,1.1078,0.0217,-79.57,-44.24,-1.55,6.0,40.54,30.7,2.21,201.61,54.88,84.26,5.0,29.376,,,,NaN,,,,0 / 0,1457,2020-10-20 19:54:46:025
-7.2985,-7.4406,0.9087,-5.5981,-8.0387,0.4605,-2.731,1.1078,0.0217,-79.57,-44.24,-1.55,6.0,40.54,30.7,2.21,201.61,54.88,84.26,5.0,29.376,,,,NaN,,,,0 / 0,1462,2020-10-20 19:54:46:030
-8.7821,-7.1224,-0.3356,-5.5981,-8.0387,0.4605,-2.731,1.1078,0.0217,-79.57,-44.24,-1.55,6.0,40.54,30.7,2.21,201.61,54.88,84.26,5.0,29.376,,,,NaN,,,,0 / 0,1468,2020-10-20 19:54:46:036
-8.7821,-7.1224,-0.3356,-5.5981,-8.0387,0.4605,-2.731,1.1078,0.0217,-79.57,-44.24,-1.55,6.0,40.54,30.7,2.21,201.61,54.88,84.26,5.0,29.376,,,,NaN,,,,0 / 0,1472,2020-10-20 19:54:46:040
-7.88,-7.3664,-2.8097,-5.6458,-8.0105,0.3566,-2.6762,0.7329,-1.3622,-103.68,-75.85,34.36,6.0,42.94,28.75,3.11,201.61,54.88,84.26,5.0,29.376,,,,NaN,,,,0 / 0,1478,2020-10-20 19:54:46:046
-7.88,-7.3664,-2.8097,-5.6458,-8.0105,0.3566,-2.6762,0.7329,-1.3622,-103.68,-75.85,34.36,6.0,42.94,28.75,3.11,201.61,54.88,84.26,5.0,29.376,,,,NaN,,,,0 / 0,1483,2020-10-20 19:54:46:051
-7.88,-7.3664,-2.8097,-5.6458,-8.0105,0.3566,-2.6762,0.7329,-1.3622,-103.68,-75.85,34.36,6.0,42.94,28.75,3.11,201.61,54.88,84.26,5.0,29.376,,,,NaN,,,,0 / 0,1488,2020-10-20 19:54:46:056
-5.8628,-8.0029,1.6194,-5.7795,-7.9199,0.2066,-0.0427,-0.0273,1.4113,-126.33,-94.96,56.87,6.0,40.24,29.35,5.51,206.32,53.86,87.95,5.0,29.376,,,,NaN,,,,0 / 0,1492,2020-10-20 19:54:46:060
-5.8628,-8.0029,1.6194,-5.7795,-7.9199,0.2066,-0.0427,-0.0273,1.4113,-126.33,-94.96,56.87,6.0,40.24,29.35,5.51,206.32,53.86,87.95,5.0,29.376,,,,NaN,,,,0 / 0,1498,2020-10-20 19:54:46:066
-5.8628,-8.0029,1.6194,-5.7795,-7.9199,0.2066,-0.0427,-0.0273,1.4113,-126.33,-94.96,56.87,6.0,40.24,29.35,5.51,206.32,53.86,87.95,5.0,29.376,,,,NaN,,,,0 / 0,1503,2020-10-20 19:54:46:071
-4.5085,-8.058,2.744,-5.8806,-7.8471,0.1058,1.4125,-0.1569,2.6375,-97.87,-60.03,49.38,6.0,40.24,29.35,5.51,206.32,53.86,87.95,5.0,29.376,,,,NaN,,,,0 / 0,1508,2020-10-20 19:54:46:076
-4.5085,-8.058,2.744,-5.8806,-7.8471,0.1058,1.4125,-0.1569,2.6375,-97.87,-60.03,49.38,4.0,43.39,27.1,3.41,206.32,53.86,87.95,5.0,29.376,,,,NaN,,,,0 / 0,1513,2020-10-20 19:54:46:081
-4.5085,-8.058,2.744,-5.8806,-7.8471,0.1058,1.4125,-0.1569,2.6375,-97.87,-60.03,49.38,4.0,43.39,27.1,3.41,206.32,53.86,87.95,5.0,29.376,,,,NaN,,,,0 / 0,1517,2020-10-20 19:54:46:085
-5.3532,-6.8089,0.2746,-5.9669,-7.7824,-0.0251,0.651,1.0221,0.2999,-75.54,-32.06,30.55,4.0,43.39,27.1,3.41,206.32,53.86,87.95,5.0,29.376,,,,NaN,,,,0 / 0,1523,2020-10-20 19:54:46:091
-5.3532,-6.8089,0.2746,-5.9669,-7.7824,-0.0251,0.651,1.0221,0.2999,-75.54,-32.06,30.55,4.0,43.39,27.1,3.41,206.32,53.86,87.95,5.0,29.376,,,,NaN,,,,0 / 0,1528,2020-10-20 19:54:46:096
-5.3532,-6.8089,0.2746,-5.9669,-7.7824,-0.0251,0.651,1.0221,0.2999,-75.23,-29.75,20.85,4.0,42.19,27.7,3.86,193.2,52.52,90.24,5.0,29.376,,,,NaN,,,,0 / 0,1532,2020-10-20 19:54:46:100
-5.3532,-6.8089,0.2746,-5.9669,-7.7824,-0.0251,0.651,1.0221,0.2999,-75.23,-29.75,20.85,4.0,42.19,27.7,3.86,193.2,52.52,90.24,5.0,29.376,,,,NaN,,,,0 / 0,1538,2020-10-20 19:54:46:106
-7.4158,-6.2179,1.5954,-6.0098,-7.7484,-0.1212,-1.3701,1.5769,1.7174,-74.18,-32.24,18.12,4.0,42.19,27.7,3.86,193.2,52.52,90.24,5.0,37.987,,,,NaN,,,,0 / 0,1543,2020-10-20 19:54:46:111
-7.4158,-6.2179,1.5954,-6.0098,-7.7484,-0.1212,-1.3701,1.5769,1.7174,-74.18,-32.24,18.12,4.0,42.19,27.7,3.86,193.2,52.52,90.24,5.0,37.987,,,,NaN,,,,0 / 0,1547,2020-10-20 19:54:46:115
-8.8898,-6.0528,2.5167,-6.0579,-7.7094,-0.1959,-2.7956,1.7029,2.7137,-65.64,-33.92,20.82,4.0,44.74,28.0,3.11,193.2,52.52,90.24,5.0,37.987,,,,NaN,,,,0 / 0,1553,2020-10-20 19:54:46:121
-8.8898,-6.0528,2.5167,-6.0579,-7.7094,-0.1959,-2.7956,1.7029,2.7137,-65.64,-33.92,20.82,4.0,44.74,28.0,3.11,193.2,52.52,90.24,5.0,37.987,,,,NaN,,,,0 / 0,1558,2020-10-20 19:54:46:126
-8.8898,-6.0528,2.5167,-6.0579,-7.7094,-0.1959,-2.7956,1.7029,2.7137,-59.65,-38.85,25.82,4.0,44.74,28.0,3.11,193.2,52.52,90.24,5.0,37.987,,,,NaN,,,,0 / 0,1562,2020-10-20 19:54:46:130
-11.821,-4.8635,3.8112,-6.1272,-7.6532,-0.2383,-5.6549,2.8383,4.051,-59.65,-38.85,25.82,4.0,44.74,28.0,3.11,193.2,52.52,90.24,5.0,37.987,,,,NaN,,,,0 / 0,1568,2020-10-20 19:54:46:136
-11.821,-4.8635,3.8112,-6.1272,-7.6532,-0.2383,-5.6549,2.8383,4.051,-51.95,-44.31,37.51,4.0,44.14,25.3,1.91,180.88,51.3,92.23,5.0,37.987,,,,NaN,,,,0 / 0,1576,2020-10-20 19:54:46:144
-11.821,-4.8635,3.8112,-6.1272,-7.6532,-0.2383,-5.6549,2.8383,4.051,-51.95,-44.31,37.51,4.0,44.14,25.3,1.91,180.88,51.3,92.23,5.0,37.987,,,,NaN,,,,0 / 0,1578,2020-10-20 19:54:46:146
-12.9217,-4.9545,4.7468,-6.2362,-7.5645,-0.2426,-6.6416,2.6632,4.9911,-51.95,-44.31,37.51,4.0,44.14,25.3,1.91,180.88,51.3,92.23,5.0,37.987,,,,NaN,,,,0 / 0,1582,2020-10-20 19:54:46:150
-12.9217,-4.9545,4.7468,-6.2362,-7.5645,-0.2426,-6.6416,2.6632,4.9911,-51.95,-44.31,37.51,4.0,44.14,25.3,1.91,180.88,51.3,92.23,5.0,37.987,,,,NaN,,,,0 / 0,1588,2020-10-20 19:54:46:156
-12.9217,-4.9545,4.7468,-6.2362,-7.5645,-0.2426,-6.6416,2.6632,4.9911,-35.36,-36.54,58.65,4.0,44.14,25.3,1.91,180.88,51.3,92.23,5.0,37.987,,,,NaN,,,,0 / 0,1593,2020-10-20 19:54:46:161
-13.673,-5.1674,4.5219,-6.3822,-7.4421,-0.2314,-7.2397,2.3343,4.7551,-35.36,-36.54,58.65,4.0,43.39,25.6,1.91,180.88,51.3,92.23,5.0,37.987,,,,NaN,,,,0 / 0,1598,2020-10-20 19:54:46:166
-13.673,-5.1674,4.5219,-6.3822,-7.4421,-0.2314,-7.2397,2.3343,4.7551,-16.18,-17.89,79.16,4.0,43.39,25.6,1.91,180.88,51.3,92.23,5.0,37.987,,,,NaN,,,,0 / 0,1602,2020-10-20 19:54:46:170
-13.673,-5.1674,4.5219,-6.3822,-7.4421,-0.2314,-7.2397,2.3343,4.7551,-16.18,-17.89,79.16,4.0,43.39,25.6,1.91,180.88,51.3,92.23,5.0,37.987,,,,NaN,,,,0 / 0,1608,2020-10-20 19:54:46:176
-13.0198,-6.2633,3.0168,-6.5626,-7.2839,-0.2182,-6.3962,1.0881,3.237,-4.7,-5.57,94.25,4.0,43.99,24.4,3.11,185.27,47.97,91.9,5.0,37.987,,,,NaN,,,,0 / 0,1612,2020-10-20 19:54:46:180
-13.0198,-6.2633,3.0168,-6.5626,-7.2839,-0.2182,-6.3962,1.0881,3.237,-4.7,-5.57,94.25,4.0,43.99,24.4,3.11,185.27,47.97,91.9,5.0,37.987,,,,NaN,,,,0 / 0,1618,2020-10-20 19:54:46:186
-13.0198,-6.2633,3.0168,-6.5626,-7.2839,-0.2182,-6.3962,1.0881,3.237,-4.7,-5.57,94.25,4.0,43.99,24.4,3.11,185.27,47.97,91.9,5.0,37.987,,,,NaN,,,,0 / 0,1623,2020-10-20 19:54:46:191
-11.6702,-6.7275,3.2872,-6.6946,-7.1632,-0.205,-4.9082,0.5077,3.4943,12.17,7.31,103.73,4.0,43.99,24.4,3.11,185.27,47.97,91.9,5.0,37.987,,,,NaN,,,,0 / 0,1628,2020-10-20 19:54:46:196
-11.6702,-6.7275,3.2872,-6.6946,-7.1632,-0.205,-4.9082,0.5077,3.4943,12.17,7.31,103.73,4.0,44.74,23.65,1.76,185.27,47.97,91.9,5.0,37.987,,,,NaN,,,,0 / 0,1633,2020-10-20 19:54:46:201
-10.2632,-5.969,1.9257,-6.8933,-6.9732,-0.1662,-3.2955,1.0795,2.0937,37.68,17.53,106.5,4.0,44.74,23.65,1.76,185.27,47.97,91.9,5.0,37.987,,,,NaN,,,,0 / 0,1638,2020-10-20 19:54:46:206
-10.2632,-5.969,1.9257,-6.8933,-6.9732,-0.1662,-3.2955,1.0795,2.0937,37.68,17.53,106.5,4.0,44.74,23.65,1.76,185.27,47.97,91.9,5.0,37.987,,,,NaN,,,,0 / 0,1643,2020-10-20 19:54:46:211
-10.2632,-5.969,1.9257,-6.8933,-6.9732,-0.1662,-3.2955,1.0795,2.0937,37.68,17.53,106.5,4.0,44.74,23.65,1.76,185.27,47.97,91.9,5.0,37.987,,,,NaN,,,,0 / 0,1647,2020-10-20 19:54:46:215
-9.488,-5.7991,0.2603,-7.0846,-6.7795,-0.1309,-2.3239,1.0564,0.3926,45.87,29.68,106.04,4.0,46.39,20.5,1.61,183.95,43.73,91.06,5.0,37.987,,,,NaN,,,,0 / 0,1653,2020-10-20 19:54:46:221
-9.488,-5.7991,0.2603,-7.0846,-6.7795,-0.1309,-2.3239,1.0564,0.3926,45.87,29.68,106.04,4.0,46.39,20.5,1.61,183.95,43.73,91.06,5.0,37.987,,,,NaN,,,,0 / 0,1657,2020-10-20 19:54:46:225
-9.488,-5.7991,0.2603,-7.0846,-6.7795,-0.1309,-2.3239,1.0564,0.3926,46.47,34.09,105.2,4.0,46.39,20.5,1.61,183.95,43.73,91.06,5.0,37.987,,,,NaN,,,,0 / 0,1663,2020-10-20 19:54:46:231
-8.4279,-5.579,-0.9386,-7.2664,-6.5846,-0.1148,-1.6273,1.0172,-0.3732,46.47,34.09,105.2,4.0,46.39,20.5,1.61,183.95,43.73,91.06,5.0,37.987,,,,NaN,,,,0 / 0,1668,2020-10-20 19:54:46:236
-8.4279,-5.579,-0.9386,-7.2664,-6.5846,-0.1148,-1.6273,1.0172,-0.3732,41.85,28.77,102.82,4.0,46.54,18.85,3.56,183.95,43.73,91.06,5.0,37.987,,,,NaN,,,,0 / 0,1677,2020-10-20 19:54:46:245
-7.1191,-4.7511,-2.245,-7.4371,-6.3913,-0.1061,0.0151,1.4177,-1.812,41.85,28.77,102.82,4.0,46.54,18.85,3.56,183.95,43.73,91.06,5.0,37.987,,,,NaN,,,,0 / 0,1678,2020-10-20 19:54:46:246
-7.1191,-4.7511,-2.245,-7.4371,-6.3913,-0.1061,0.0151,1.4177,-1.812,33.41,18.9,98.8,4.0,46.54,18.85,3.56,183.95,43.73,91.06,5.0,37.987,,,,NaN,,,,0 / 0,1683,2020-10-20 19:54:46:251
-7.1191,-4.7511,-2.245,-7.4371,-6.3913,-0.1061,0.0151,1.4177,-1.812,33.41,18.9,98.8,4.0,46.54,18.85,3.56,183.95,43.73,91.06,5.0,37.987,,,,NaN,,,,0 / 0,1687,2020-10-20 19:54:46:255
-6.7075,-3.8968,-2.4915,-7.5432,-6.2659,-0.0989,0.915,2.435,-2.3915,33.41,18.9,98.8,4.0,49.09,16.75,2.51,187.36,39.71,90.75,5.0,37.987,,,,NaN,,,,0 / 0,1694,2020-10-20 19:54:46:262
-6.7075,-3.8968,-2.4915,-7.5432,-6.2659,-0.0989,0.915,2.435,-2.3915,18.92,1.68,93.93,4.0,49.09,16.75,2.51,187.36,39.71,90.75,5.0,37.987,,,,NaN,,,,0 / 0,1697,2020-10-20 19:54:46:265
-4.999,-3.3417,-1.709,-7.6918,-6.0828,-0.0795,0.915,2.435,-2.3915,18.92,1.68,93.93,4.0,49.09,16.75,2.51,187.36,39.71,90.75,5.0,37.987,,,,NaN,,,,0 / 0,1703,2020-10-20 19:54:46:271
-4.999,-3.3417,-1.709,-7.6918,-6.0828,-0.0795,2.764,2.7975,-1.6288,18.92,1.68,93.93,4.0,49.09,16.75,2.51,187.36,39.71,90.75,5.0,37.987,,,,NaN,,,,0 / 0,1708,2020-10-20 19:54:46:276
-4.999,-3.3417,-1.709,-7.6918,-6.0828,-0.0795,2.764,2.7975,-1.6288,13.64,-7.6,89.03,4.0,48.19,17.2,2.66,187.36,39.71,90.75,5.0,37.987,,,,NaN,,,,0 / 0,1712,2020-10-20 19:54:46:280
-2.7546,-3.246,-0.0412,-7.8191,-5.9186,-0.0415,2.764,2.7975,-1.6288,13.64,-7.6,89.03,4.0,48.19,17.2,2.66,187.36,39.71,90.75,5.0,37.987,,,,NaN,,,,0 / 0,1718,2020-10-20 19:54:46:286
-2.7546,-3.246,-0.0412,-7.8191,-5.9186,-0.0415,2.764,2.7975,-1.6288,13.64,-7.6,89.03,4.0,48.19,17.2,2.66,187.36,39.71,90.75,5.0,37.987,,,,NaN,,,,0 / 0,1723,2020-10-20 19:54:46:291
-2.7546,-3.246,-0.0412,-7.8191,-5.9186,-0.0415,5.4912,2.6923,0.2516,17.56,-11.62,73.11,4.0,48.19,17.2,2.66,187.36,39.71,90.75,5.0,37.987,,,,NaN,,,,0 / 0,1727,2020-10-20 19:54:46:295
-0.9097,-3.4111,0.0856,-7.9131,-5.7924,0.0157,5.4912,2.6923,0.2516,17.56,-11.62,73.11,4.0,48.94,16.45,3.41,190.94,36.2,89.89,5.0,37.987,,,,NaN,,,,0 / 0,1733,2020-10-20 19:54:46:301
-0.9097,-3.4111,0.0856,-7.9131,-5.7924,0.0157,7.4501,2.4717,-0.1416,29.21,-15.79,47.8,4.0,48.94,16.45,3.41,190.94,36.2,89.89,5.0,37.987,,,,NaN,,,,0 / 0,1739,2020-10-20 19:54:46:307
-0.9097,-3.4111,0.0856,-7.9131,-5.7924,0.0157,7.4501,2.4717,-0.1416,29.21,-15.79,47.8,4.0,48.94,16.45,3.41,190.94,36.2,89.89,5.0,37.987,,,,NaN,,,,0 / 0,1743,2020-10-20 19:54:46:311
-0.3737,-3.2627,-0.271,-7.9507,-5.7404,0.068,7.4501,2.4717,-0.1416,29.21,-15.79,47.8,4.0,48.94,16.45,3.41,190.94,36.2,89.89,5.0,37.987,,,,NaN,,,,0 / 0,1748,2020-10-20 19:54:46:316
-0.3737,-3.2627,-0.271,-7.9507,-5.7404,0.068,7.3144,2.0259,-0.6568,33.27,-24.01,16.76,4.0,48.94,16.45,3.41,190.94,36.2,89.89,5.0,37.987,,,,NaN,,,,0 / 0,1753,2020-10-20 19:54:46:321
-0.7422,-4.0141,-0.4791,-7.9691,-5.7129,0.1621,7.3144,2.0259,-0.6568,33.27,-24.01,16.76,4.0,48.64,14.65,2.21,190.94,36.2,89.89,5.0,37.987,,,,NaN,,,,0 / 0,1757,2020-10-20 19:54:46:325
-0.7422,-4.0141,-0.4791,-7.9691,-5.7129,0.1621,7.3144,2.0259,-0.6568,33.66,-26.57,0.83,4.0,48.64,14.65,2.21,190.94,36.2,89.89,5.0,37.987,,,,NaN,,,,0 / 0,1763,2020-10-20 19:54:46:331
-0.7422,-4.0141,-0.4791,-7.9691,-5.7129,0.1621,6.6829,1.4735,0.4076,33.66,-26.57,0.83,4.0,48.64,14.65,2.21,190.94,36.2,89.89,5.0,37.987,,,,NaN,,,,0 / 0,1768,2020-10-20 19:54:46:336
-0.7422,-4.0141,-0.4791,-7.9691,-5.7129,0.1621,6.6829,1.4735,0.4076,33.66,-26.57,0.83,4.0,48.64,14.65,2.21,190.94,36.2,89.89,5.0,37.987,,,,NaN,,,,0 / 0,1773,2020-10-20 19:54:46:341
-2.063,-4.0117,1.27,-7.9527,-5.7314,0.2749,6.6829,1.4735,0.4076,36.88,-33.22,-13.31,4.0,48.94,15.4,1.91,192.68,35.76,88.02,5.0,37.987,,,,NaN,,,,0 / 0,1777,2020-10-20 19:54:46:345
-2.063,-4.0117,1.27,-7.9527,-5.7314,0.2749,3.721,2.2966,1.8124,36.88,-33.22,-13.31,4.0,48.94,15.4,1.91,192.68,35.76,88.02,5.0,37.987,,,,NaN,,,,0 / 0,1783,2020-10-20 19:54:46:351
-2.063,-4.0117,1.27,-7.9527,-5.7314,0.2749,3.721,2.2966,1.8124,43.35,-38.01,-24.82,4.0,48.94,15.4,1.91,192.68,35.76,88.02,0.0,37.987,,,,NaN,,,,0 / 0,1788,2020-10-20 19:54:46:356
-5.3268,-3.7509,1.9065,-7.9019,-5.789,0.466,3.721,2.2966,1.8124,43.35,-38.01,-24.82,4.0,48.94,15.4,1.91,192.68,35.76,88.02,0.0,37.987,,,,NaN,,,,0 / 0,1793,2020-10-20 19:54:46:361
-5.3268,-3.7509,1.9065,-7.9019,-5.789,0.466,2.409,1.785,0.7574,43.11,-29.61,-26.5,4.0,47.59,16.3,1.76,192.68,35.76,88.02,0.0,37.987,,,,NaN,,,,0 / 0,1798,2020-10-20 19:54:46:366
-5.3268,-3.7509,1.9065,-7.9019,-5.789,0.466,2.409,1.785,0.7574,43.11,-29.61,-26.5,4.0,47.59,16.3,1.76,192.68,35.76,88.02,0.0,37.987,,,,NaN,,,,0 / 0,1803,2020-10-20 19:54:46:371
-5.279,-4.3443,0.4804,-7.8569,-5.84,0.5777,2.409,1.785,0.7574,36.74,-21.7,-29.76,4.0,47.59,16.3,1.76,192.68,35.76,88.02,0.0,37.987,,,,NaN,,,,0 / 0,1808,2020-10-20 19:54:46:376
-5.279,-4.3443,0.4804,-7.8569,-5.84,0.5777,2.766,1.2288,-0.1362,36.74,-21.7,-29.76,4.0,47.59,16.3,1.76,192.68,35.76,88.02,0.0,37.987,,,,NaN,,,,0 / 0,1812,2020-10-20 19:54:46:380
-4.2812,-5.0095,1.136,-7.7979,-5.9109,0.6515,2.766,1.2288,-0.1362,24.31,-13.27,-40.12,4.0,49.99,14.35,0.41,191.24,36.55,85.79,0.0,37.987,,,,NaN,,,,0 / 0,1818,2020-10-20 19:54:46:386
-4.2812,-5.0095,1.136,-7.7979,-5.9109,0.6515,2.766,1.2288,-0.1362,24.31,-13.27,-40.12,4.0,49.99,14.35,0.41,191.24,36.55,85.79,0.0,37.987,,,,NaN,,,,0 / 0,1823,2020-10-20 19:54:46:391
-4.2812,-5.0095,1.136,-7.7979,-5.9109,0.6515,4.0808,0.863,0.7126,24.31,-13.27,-40.12,4.0,49.99,14.35,0.41,191.24,36.55,85.79,0.0,37.987,,,,NaN,,,,0 / 0,1828,2020-10-20 19:54:46:396
-2.8598,-4.8755,1.3657,-7.7979,-5.9109,0.6515,4.0808,0.863,0.7126,22.14,-13.97,-51.35,4.0,49.99,14.35,0.41,191.24,36.55,85.79,0.0,37.987,,,,NaN,,,,0 / 0,1833,2020-10-20 19:54:46:401
-2.8598,-4.8755,1.3657,-7.7117,-6.0154,0.7179,5.6158,1.2671,0.6705,22.14,-13.97,-51.35,4.0,47.89,16.15,0.11,191.24,36.55,85.79,0.0,37.987,,,,NaN,,,,0 / 0,1838,2020-10-20 19:54:46:406
-0.4359,-4.5046,0.9877,-7.7117,-6.0154,0.7179,5.6158,1.2671,0.6705,18.99,-35.18,-79.98,4.0,47.89,16.15,0.11,191.24,36.55,85.79,0.0,37.987,,,,NaN,,,,0 / 0,1843,2020-10-20 19:54:46:411
-0.4359,-4.5046,0.9877,-7.7117,-6.0154,0.7179,5.6158,1.2671,0.6705,18.99,-35.18,-79.98,4.0,47.89,16.15,0.11,191.24,36.55,85.79,0.0,37.987,,,,NaN,,,,0 / 0,1848,2020-10-20 19:54:46:416
-0.4359,-4.5046,0.9877,-7.7117,-6.0154,0.7179,5.6158,1.2671,0.6705,18.99,-35.18,-79.98,4.0,47.89,16.15,0.11,191.24,36.55,85.79,0.0,37.987,,,,NaN,,,,0 / 0,1852,2020-10-20 19:54:46:420
0.27,-5.2799,1.4016,-7.5133,-6.2439,0.8569,7.6965,0.8919,0.5546,15.28,-48.16,-101.65,4.0,48.34,16.75,-1.24,194.39,39.55,83.49,0.0,35.132,,,,NaN,,,,0 / 0,1857,2020-10-20 19:54:46:425
0.27,-5.2799,1.4016,-7.5133,-6.2439,0.8569,7.6965,0.8919,0.5546,15.28,-48.16,-101.65,4.0,48.34,16.75,-1.24,194.39,39.55,83.49,0.0,35.132,,,,NaN,,,,0 / 0,1863,2020-10-20 19:54:46:431
0.27,-5.2799,1.4016,-7.5133,-6.2439,0.8569,7.6965,0.8919,0.5546,19.9,-66.82,-135.91,4.0,48.34,16.75,-1.24,194.39,39.55,83.49,0.0,35.132,,,,NaN,,,,0 / 0,1868,2020-10-20 19:54:46:436
0.27,-5.2799,1.4016,-7.5133,-6.2439,0.8569,7.6965,0.8919,0.5546,19.9,-66.82,-135.91,4.0,48.34,16.75,-1.24,194.39,39.55,83.49,0.0,35.132,,,,NaN,,,,0 / 0,1872,2020-10-20 19:54:46:440
-0.2517,-7.3449,3.9691,-7.1927,-6.5794,1.0707,6.8382,-0.8595,2.9137,34.57,-84.95,-158.66,2.0,46.69,19.0,-1.69,194.39,39.55,83.49,0.0,35.132,,,,NaN,,,,0 / 0,1877,2020-10-20 19:54:46:445
-0.2517,-7.3449,3.9691,-7.1927,-6.5794,1.0707,6.8382,-0.8595,2.9137,34.57,-84.95,-158.66,2.0,46.69,19.0,-1.69,194.39,39.55,83.49,0.0,35.132,,,,NaN,,,,0 / 0,1883,2020-10-20 19:54:46:451
-0.2517,-7.3449,3.9691,-7.1927,-6.5794,1.0707,6.8382,-0.8595,2.9137,34.57,-84.95,-158.66,2.0,46.69,19.0,-1.69,194.39,39.55,83.49,0.0,35.132,,,,NaN,,,,0 / 0,1888,2020-10-20 19:54:46:456
-2.7211,-8.9409,3.9285,-6.8678,-6.8743,1.322,4.0433,-2.1701,2.6264,50.32,-102.06,-172.87,2.0,46.69,19.0,-1.69,194.39,39.55,83.49,0.0,35.132,,,,NaN,,,,0 / 0,1893,2020-10-20 19:54:46:461
-2.7211,-8.9409,3.9285,-6.8678,-6.8743,1.322,4.0433,-2.1701,2.6264,50.32,-102.06,-172.87,2.0,44.14,21.25,-3.94,195.49,44.51,79.1,0.0,35.132,,,,NaN,,,,0 / 0,1897,2020-10-20 19:54:46:465
-2.7211,-8.9409,3.9285,-6.8678,-6.8743,1.322,4.0433,-2.1701,2.6264,74.89,-104.27,-182.08,2.0,44.14,21.25,-3.94,195.49,44.51,79.1,0.0,35.132,,,,NaN,,,,0 / 0,1903,2020-10-20 19:54:46:471
-2.7211,-8.9409,3.9285,-6.8678,-6.8743,1.322,4.0433,-2.1701,2.6264,74.89,-104.27,-182.08,2.0,44.14,21.25,-3.94,195.49,44.51,79.1,0.0,35.132,,,,NaN,,,,0 / 0,1908,2020-10-20 19:54:46:476
-3.202,-10.8982,0.289,-6.3658,-7.2585,1.721,3.0703,-3.7463,-1.4068,77.27,-92.58,-183.76,2.0,44.14,21.25,-3.94,195.49,44.51,79.1,0.0,35.132,,,,NaN,,,,0 / 0,1913,2020-10-20 19:54:46:481
-3.202,-10.8982,0.289,-6.3658,-7.2585,1.721,3.0703,-3.7463,-1.4068,77.27,-92.58,-183.76,2.0,44.44,25.45,-6.64,195.49,44.51,79.1,0.0,35.132,,,,NaN,,,,0 / 0,1918,2020-10-20 19:54:46:486
-3.202,-10.8982,0.289,-6.3658,-7.2585,1.721,3.0703,-3.7463,-1.4068,77.27,-92.58,-183.76,2.0,44.44,25.45,-6.64,195.49,44.51,79.1,0.0,35.132,,,,NaN,,,,0 / 0,1923,2020-10-20 19:54:46:491
-0.9839,-10.0655,-2.5274,-5.8915,-7.57,2.0384,4.8183,-2.6103,-4.5348,73.66,-137.66,-232.27,2.0,44.44,25.45,-6.64,195.49,44.51,79.1,0.0,35.132,,,,NaN,,,,0 / 0,1928,2020-10-20 19:54:46:496
-0.9839,-10.0655,-2.5274,-5.8915,-7.57,2.0384,4.8183,-2.6103,-4.5348,73.66,-137.66,-232.27,2.0,44.44,25.45,-6.64,195.49,44.51,79.1,0.0,35.132,,,,NaN,,,,0 / 0,1933,2020-10-20 19:54:46:501
-0.9839,-10.0655,-2.5274,-5.8915,-7.57,2.0384,4.8183,-2.6103,-4.5348,16.09,-135.14,-295.52,2.0,42.34,28.15,-9.04,199.08,50.53,70.92,0.0,35.132,,,,NaN,,,,0 / 0,1939,2020-10-20 19:54:46:507
-4.0228,-8.7471,-6.9613,-5.0394,-8.0893,2.3105,0.9345,-0.7897,-9.2341,16.09,-135.14,-295.52,2.0,42.34,28.15,-9.04,199.08,50.53,70.92,0.0,35.132,,,,NaN,,,,0 / 0,1942,2020-10-20 19:54:46:510
-4.0228,-8.7471,-6.9613,-5.0394,-8.0893,2.3105,0.9345,-0.7897,-9.2341,-51.18,-5.39,-303.39,2.0,42.34,28.15,-9.04,199.08,50.53,70.92,0.0,35.132,,,,NaN,,,,0 / 0,1948,2020-10-20 19:54:46:516
-4.0228,-8.7471,-6.9613,-5.0394,-8.0893,2.3105,0.9345,-0.7897,-9.2341,-51.18,-5.39,-303.39,2.0,42.34,28.15,-9.04,199.08,50.53,70.92,0.0,35.132,,,,NaN,,,,0 / 0,1953,2020-10-20 19:54:46:521
-3.2642,-8.7255,-4.4727,-4.4376,-8.5091,2.0184,1.0985,-0.36,-6.4571,-126.57,128.49,-303.11,2.0,38.59,33.55,-8.14,199.08,50.53,70.92,0.0,35.132,,,,NaN,,,,0 / 0,1957,2020-10-20 19:54:46:525
-3.2642,-8.7255,-4.4727,-4.4376,-8.5091,2.0184,1.0985,-0.36,-6.4571,-126.57,128.49,-303.11,2.0,38.59,33.55,-8.14,199.08,50.53,70.92,0.0,35.132,,,,NaN,,,,0 / 0,1963,2020-10-20 19:54:46:531
-3.2642,-8.7255,-4.4727,-4.4376,-8.5091,2.0184,1.0985,-0.36,-6.4571,-126.57,128.49,-303.11,2.0,38.59,33.55,-8.14,199.08,50.53,70.92,0.0,35.132,,,,NaN,,,,0 / 0,1968,2020-10-20 19:54:46:536
-2.0032,-6.9477,-2.3527,-3.8071,-8.9225,1.4375,1.7362,1.8162,-3.7646,-194.93,168.98,-326.95,2.0,38.59,33.55,-8.14,199.08,50.53,70.92,0.0,35.132,,,,NaN,,,,0 / 0,1973,2020-10-20 19:54:46:541
-2.0032,-6.9477,-2.3527,-3.8071,-8.9225,1.4375,1.7362,1.8162,-3.7646,-194.93,168.98,-326.95,2.0,35.44,35.95,-4.24,208.11,65.48,69.31,0.0,35.132,,,,NaN,,,,0 / 0,1978,2020-10-20 19:54:46:546
-1.7998,-5.232,-2.2929,-3.0487,-9.2871,0.7912,1.7362,1.8162,-3.7646,-216.81,154.42,-347.84,2.0,35.44,35.95,-4.24,208.11,65.48,69.31,0.0,35.132,,,,NaN,,,,0 / 0,1983,2020-10-20 19:54:46:551
-1.7998,-5.232,-2.2929,-3.0487,-9.2871,0.7912,1.1903,3.8768,-3.0689,-216.81,154.42,-347.84,2.0,35.44,35.95,-4.24,208.11,65.48,69.31,0.0,35.132,,,,NaN,,,,0 / 0,1988,2020-10-20 19:54:46:556
-1.7998,-5.232,-2.2929,-3.0487,-9.2871,0.7912,1.1903,3.8768,-3.0689,-230.53,154.53,-360.86,2.0,35.44,35.95,-4.24,208.11,65.48,69.31,0.0,35.132,,,,NaN,,,,0 / 0,1993,2020-10-20 19:54:46:561
-1.6969,-4.3108,-1.9507,-2.2018,-9.5556,0.116,1.1903,3.8768,-3.0689,-230.53,154.53,-360.86,0.0,31.09,40.3,-2.14,208.11,65.48,69.31,0.0,35.132,,,,NaN,,,,0 / 0,1997,2020-10-20 19:54:46:565
-1.6969,-4.3108,-1.9507,-2.2018,-9.5556,0.116,0.4585,5.0435,-2.0643,-230.53,154.53,-360.86,0.0,31.09,40.3,-2.14,208.11,65.48,69.31,0.0,35.132,,,,NaN,,,,0 / 0,2003,2020-10-20 19:54:46:571
-1.6969,-4.3108,-1.9507,-2.2018,-9.5556,0.116,0.4585,5.0435,-2.0643,-235.04,179.69,-364.78,0.0,31.09,40.3,-2.14,208.11,65.48,69.31,0.0,35.132,,,,NaN,,,,0 / 0,2008,2020-10-20 19:54:46:576
-1.4576,-4.2916,-0.7304,-1.3023,-9.705,-0.5361,-0.1853,5.1901,-0.2067,-235.04,179.69,-364.78,0.0,31.09,40.3,-2.14,208.11,65.48,69.31,0.0,35.132,,,,NaN,,,,0 / 0,2013,2020-10-20 19:54:46:581
-1.4576,-4.2916,-0.7304,-1.3023,-9.705,-0.5361,-0.1853,5.1901,-0.2067,-217.54,193.34,-364.22,0.0,26.89,44.8,3.86,161.58,81.74,112.37,0.0,35.132,,,,NaN,,,,0 / 0,2018,2020-10-20 19:54:46:586
-1.4576,-4.2916,-0.7304,-1.3023,-9.705,-0.5361,-0.1853,5.1901,-0.2067,-217.54,193.34,-364.22,0.0,26.89,44.8,3.86,161.58,81.74,112.37,0.0,35.132,,,,NaN,,,,0 / 0,2023,2020-10-20 19:54:46:591
-1.9003,-4.385,3.8088,-0.3784,-9.7413,-1.0648,-1.5314,5.1124,4.8469,-183.63,180.53,-357.33,0.0,26.89,44.8,3.86,161.58,81.74,112.37,0.0,35.132,,,,NaN,,,,0 / 0,2028,2020-10-20 19:54:46:596
-1.9003,-4.385,3.8088,-0.3784,-9.7413,-1.0648,-1.5314,5.1124,4.8469,-183.63,180.53,-357.33,0.0,26.89,44.8,3.86,161.58,81.74,112.37,0.0,35.132,,,,NaN,,,,0 / 0,2032,2020-10-20 19:54:46:600
-1.9003,-4.385,3.8088,-0.3784,-9.7413,-1.0648,-1.5314,5.1124,4.8469,-183.63,180.53,-357.33,0.0,19.84,46.6,8.96,161.58,81.74,112.37,0.0,35.132,,,,NaN,,,,0 / 0,2038,2020-10-20 19:54:46:606
-1.4194,-4.1696,6.7735,0.2216,-9.7204,-1.279,-1.6351,5.292,8.0185,-123.07,136.99,-344.94,0.0,19.84,46.6,8.96,161.58,81.74,112.37,0.0,35.132,,,,NaN,,,,0 / 0,2043,2020-10-20 19:54:46:611
-1.4194,-4.1696,6.7735,0.2216,-9.7204,-1.279,-1.6351,5.292,8.0185,-123.07,136.99,-344.94,0.0,19.84,46.6,8.96,161.58,81.74,112.37,0.0,35.132,,,,NaN,,,,0 / 0,2048,2020-10-20 19:54:46:616
-1.4194,-4.1696,6.7735,0.2216,-9.7204,-1.279,-1.6351,5.292,8.0185,-51.36,65.55,-323.03,0.0,19.84,46.6,8.96,161.58,81.74,112.37,0.0,35.132,,,,NaN,,,,0 / 0,2053,2020-10-20 19:54:46:621
-1.4194,-4.1696,6.7735,0.2216,-9.7204,-1.279,-1.6351,5.292,8.0185,-51.36,65.55,-323.03,0.0,19.84,46.6,8.96,161.58,81.74,112.37,0.0,35.132,,,,NaN,,,,0 / 0,2057,2020-10-20 19:54:46:625
-1.7926,-5.3086,0.6599,1.3147,-9.609,-1.4522,-3.0684,4.0152,2.0689,-28.96,29.5,-307.31,0.0,12.04,48.25,10.61,59.76,78.48,-137.84,0.0,35.132,,,,NaN,,,,0 / 0,2063,2020-10-20 19:54:46:631
-1.7926,-5.3086,0.6599,1.3147,-9.609,-1.4522,-3.0684,4.0152,2.0689,-28.96,29.5,-307.31,0.0,12.04,48.25,10.61,59.76,78.48,-137.84,0.0,35.132,,,,NaN,,,,0 / 0,2068,2020-10-20 19:54:46:636
-1.7926,-5.3086,0.6599,1.3147,-9.609,-1.4522,-3.0684,4.0152,2.0689,-28.96,29.5,-307.31,0.0,12.04,48.25,10.61,59.76,78.48,-137.84,0.0,35.132,,,,NaN,,,,0 / 0,2073,2020-10-20 19:54:46:641
0.6839,-16.854,1.1935,2.045,-9.4753,-1.4855,-1.3027,-7.6495,2.6365,-6.94,-26.67,-307.17,0.0,7.24,49.45,11.66,59.76,78.48,-137.84,0.0,35.132,,,,NaN,,,,0 / 0,2078,2020-10-20 19:54:46:646
0.6839,-16.854,1.1935,2.045,-9.4753,-1.4855,-1.3027,-7.6495,2.6365,-6.94,-26.67,-307.17,0.0,7.24,49.45,11.66,59.76,78.48,-137.84,0.0,35.132,,,,NaN,,,,0 / 0,2082,2020-10-20 19:54:46:650
0.6839,-16.854,1.1935,2.045,-9.4753,-1.4855,-1.3027,-7.6495,2.6365,39.85,-100.07,-375.21,0.0,7.24,49.45,11.66,59.76,78.48,-137.84,0.0,35.132,,,,NaN,,,,0 / 0,2088,2020-10-20 19:54:46:656
12.3968,-35.975,-2.8552,3.1486,-9.1744,-1.445,8.1301,-22.5584,0.2901,39.85,-100.07,-375.21,0.0,7.24,49.45,11.66,59.76,78.48,-137.84,0.0,35.132,,,,NaN,,,,0 / 0,2094,2020-10-20 19:54:46:662
12.3968,-35.975,-2.8552,3.1486,-9.1744,-1.445,8.1301,-22.5584,0.2901,72.37,-98.74,-456.55,0.0,2.74,48.55,11.51,38.69,69.31,-114.65,0.0,35.132,,,,NaN,,,,0 / 0,2098,2020-10-20 19:54:46:666
12.3968,-35.975,-2.8552,3.1486,-9.1744,-1.445,8.1301,-22.5584,0.2901,72.37,-98.74,-456.55,0.0,2.74,48.55,11.51,38.69,69.31,-114.65,0.0,35.132,,,,NaN,,,,0 / 0,2103,2020-10-20 19:54:46:671
12.3968,-35.975,-2.8552,3.1486,-9.1744,-1.445,7.0317,-29.6524,-2.089,72.37,-98.74,-456.55,0.0,2.74,48.55,11.51,38.69,69.31,-114.65,0.0,35.132,,,,NaN,,,,0 / 0,2107,2020-10-20 19:54:46:675
11.2124,-38.3511,-3.3984,4.2095,-8.7586,-1.3184,7.0317,-29.6524,-2.089,104.46,-79.63,-512.27,0.0,2.74,48.55,11.51,38.69,69.31,-114.65,0.0,35.132,,,,NaN,,,,0 / 0,2113,2020-10-20 19:54:46:681
11.2124,-38.3511,-3.3984,4.2095,-8.7586,-1.3184,7.0317,-29.6524,-2.089,104.46,-79.63,-512.27,0.0,-5.36,52.15,10.76,38.69,69.31,-114.65,0.0,35.132,,,,NaN,,,,0 / 0,2118,2020-10-20 19:54:46:686
11.2124,-38.3511,-3.3984,4.2095,-8.7586,-1.3184,7.0317,-29.6524,-2.089,104.46,-79.63,-512.27,0.0,-5.36,52.15,10.76,38.69,69.31,-114.65,0.0,35.132,,,,NaN,,,,0 / 0,2123,2020-10-20 19:54:46:691
4.1631,-31.7852,-3.4941,5.209,-8.2365,-1.0937,-1.0591,-23.5277,-2.3976,162.81,-73.19,-450.92,0.0,-5.36,52.15,10.76,38.69,69.31,-114.65,0.0,35.132,,,,NaN,,,,0 / 0,2128,2020-10-20 19:54:46:696
4.1631,-31.7852,-3.4941,5.209,-8.2365,-1.0937,-1.0591,-23.5277,-2.3976,162.81,-73.19,-450.92,0.0,-5.36,52.15,10.76,38.69,69.31,-114.65,0.0,35.132,,,,NaN,,,,0 / 0,2133,2020-10-20 19:54:46:701
4.1631,-31.7852,-3.4941,5.209,-8.2365,-1.0937,-1.0591,-23.5277,-2.3976,207.36,-40.15,-92.02,0.0,-5.36,52.15,10.76,38.69,69.31,-114.65,0.0,35.132,,,,NaN,,,,0 / 0,2139,2020-10-20 19:54:46:707
-0.5914,-15.7078,-3.841,5.5817,-8.0363,-0.658,-6.203,-7.6286,-3.1796,207.36,-40.15,-92.02,0.0,-13.16,49.75,8.51,22.39,57.13,-101.86,0.0,35.132,,,,NaN,,,,0 / 0,2143,2020-10-20 19:54:46:711
-0.5914,-15.7078,-3.841,5.5817,-8.0363,-0.658,-6.203,-7.6286,-3.1796,163.12,-129.85,194.84,0.0,-13.16,49.75,8.51,22.39,57.13,-101.86,0.0,35.132,,,,NaN,,,,0 / 0,2147,2020-10-20 19:54:46:715
-0.5914,-15.7078,-3.841,5.5817,-8.0363,-0.658,-6.203,-7.6286,-3.1796,163.12,-129.85,194.84,0.0,-13.16,49.75,8.51,22.39,57.13,-101.86,0.0,35.132,,,,NaN,,,,0 / 0,2152,2020-10-20 19:54:46:720
9.1785,-12.3124,-2.3455,5.1807,-8.3101,-0.5227,3.9605,-3.9424,-1.8191,163.12,-129.85,194.84,0.0,-10.46,48.85,7.61,22.39,57.13,-101.86,0.0,35.132,,,,NaN,,,,0 / 0,2158,2020-10-20 19:54:46:726
9.1785,-12.3124,-2.3455,5.1807,-8.3101,-0.5227,3.9605,-3.9424,-1.8191,61.1,-337.58,207.79,0.0,-10.46,48.85,7.61,22.39,57.13,-101.86,0.0,35.132,,,,NaN,,,,0 / 0,2163,2020-10-20 19:54:46:731
9.1785,-12.3124,-2.3455,5.1807,-8.3101,-0.5227,3.9605,-3.9424,-1.8191,61.1,-337.58,207.79,0.0,-10.46,48.85,7.61,22.39,57.13,-101.86,0.0,35.132,,,,NaN,,,,0 / 0,2168,2020-10-20 19:54:46:736
9.1785,-12.3124,-2.3455,5.1807,-8.3101,-0.5227,3.9605,-3.9424,-1.8191,61.1,-337.58,207.79,0.0,-10.46,48.85,7.61,22.39,57.13,-101.86,0.0,35.132,,,,NaN,,,,0 / 0,2172,2020-10-20 19:54:46:740
9.2191,-8.7375,-6.3152,4.5609,-8.6063,-1.14,4.616,-0.0514,-5.1647,-28.4,-396.97,161.06,0.0,-7.31,52.0,4.76,9.99,61.35,-104.03,0.0,51.272,,,,NaN,,,,0 / 0,2177,2020-10-20 19:54:46:745
9.2191,-8.7375,-6.3152,4.5609,-8.6063,-1.14,4.616,-0.0514,-5.1647,-28.4,-396.97,161.06,0.0,-7.31,52.0,4.76,9.99,61.35,-104.03,0.0,51.272,,,,NaN,,,,0 / 0,2183,2020-10-20 19:54:46:751
9.2191,-8.7375,-6.3152,4.5609,-8.6063,-1.14,4.616,-0.0514,-5.1647,-28.4,-396.97,161.06,0.0,-7.31,52.0,4.76,9.99,61.35,-104.03,0.0,51.272,,,,NaN,,,,0 / 0,2188,2020-10-20 19:54:46:756
7.1063,-6.0312,-5.2193,4.1634,-8.7263,-1.6395,2.9036,2.7775,-3.5643,-61.23,-294.35,121.09,0.0,-7.31,52.0,4.76,9.99,61.35,-104.03,0.0,51.272,,,,NaN,,,,0 / 0,2193,2020-10-20 19:54:46:761
7.1063,-6.0312,-5.2193,4.1634,-8.7263,-1.6395,2.9036,2.7775,-3.5643,-61.23,-294.35,121.09,0.0,-3.71,51.25,6.26,9.99,61.35,-104.03,0.0,51.272,,,,NaN,,,,0 / 0,2198,2020-10-20 19:54:46:766
7.1063,-6.0312,-5.2193,3.8482,-8.7891,-2.0281,2.9036,2.7775,-3.5643,-75.02,-185.05,92.92,0.0,-3.71,51.25,6.26,9.99,61.35,-104.03,0.0,51.272,,,,NaN,,,,0 / 0,2203,2020-10-20 19:54:46:771
5.4241,-3.0043,-0.7854,3.8482,-8.7891,-2.0281,1.634,5.8655,1.3692,-75.02,-185.05,92.92,0.0,-3.71,51.25,6.26,9.99,61.35,-104.03,0.0,51.272,,,,NaN,,,,0 / 0,2208,2020-10-20 19:54:46:776
5.4241,-3.0043,-0.7854,3.8482,-8.7891,-2.0281,1.634,5.8655,1.3692,-79.29,-146.9,78.53,0.0,-3.71,51.25,6.26,9.99,61.35,-104.03,0.0,51.272,,,,NaN,,,,0 / 0,2213,2020-10-20 19:54:46:781
5.4241,-3.0043,-0.7854,3.6082,-8.8185,-2.3204,1.634,5.8655,1.3692,-79.29,-146.9,78.53,0.0,-1.01,51.1,8.66,22.26,64.06,-122.75,0.0,51.272,,,,NaN,,,,0 / 0,2218,2020-10-20 19:54:46:786
5.4241,-3.0043,-0.7854,3.6082,-8.8185,-2.3204,1.634,5.8655,1.3692,-79.29,-146.9,78.53,0.0,-1.01,51.1,8.66,22.26,64.06,-122.75,0.0,51.272,,,,NaN,,,,0 / 0,2223,2020-10-20 19:54:46:791
7.9533,-0.8867,9.4056,3.6082,-8.8185,-2.3204,4.391,7.983,11.7977,-43.76,-131.6,61.17,0.0,-1.01,51.1,8.66,22.26,64.06,-122.75,0.0,51.272,,,,NaN,,,,0 / 0,2228,2020-10-20 19:54:46:796
7.9533,-0.8867,9.4056,3.4698,-8.8461,-2.4243,4.391,7.983,11.7977,-43.76,-131.6,61.17,0.0,-1.01,51.1,8.66,22.26,64.06,-122.75,0.0,51.272,,,,NaN,,,,0 / 0,2233,2020-10-20 19:54:46:801
7.9533,-0.8867,9.4056,3.4698,-8.8461,-2.4243,4.391,7.983,11.7977,23.89,-29.47,13.64,0.0,-1.01,51.1,8.66,22.26,64.06,-122.75,0.0,51.272,,,,NaN,,,,0 / 0,2238,2020-10-20 19:54:46:806
8.7884,-3.7222,-1.7928,3.4698,-8.8461,-2.4243,5.3048,5.1514,0.5972,23.89,-29.47,13.64,0.0,-1.91,52.0,5.51,22.26,64.06,-122.75,0.0,51.272,,,,NaN,,,,0 / 0,2243,2020-10-20 19:54:46:811
8.7884,-3.7222,-1.7928,3.5083,-8.8526,-2.3438,5.3048,5.1514,0.5972,32.36,61.22,-17.68,0.0,-1.91,52.0,5.51,22.26,64.06,-122.75,0.0,51.272,,,,NaN,,,,0 / 0,2248,2020-10-20 19:54:46:816
8.7884,-3.7222,-1.7928,3.5083,-8.8526,-2.3438,5.3048,5.1514,0.5972,32.36,61.22,-17.68,0.0,-1.91,52.0,5.51,22.26,64.06,-122.75,0.0,51.272,,,,NaN,,,,0 / 0,2252,2020-10-20 19:54:46:820
6.7521,-5.8805,-2.4532,3.5083,-8.8526,-2.3438,3.1332,2.9711,-0.2152,25.96,131.07,-38.19,0.0,-1.16,52.75,7.31,15.85,64.52,-123.75,0.0,51.272,,,,NaN,,,,0 / 0,2258,2020-10-20 19:54:46:826
6.7521,-5.8805,-2.4532,3.6786,-8.8276,-2.1705,3.1332,2.9711,-0.2152,25.96,131.07,-38.19,0.0,-1.16,52.75,7.31,15.85,64.52,-123.75,0.0,51.272,,,,NaN,,,,0 / 0,2262,2020-10-20 19:54:46:830
6.7521,-5.8805,-2.4532,3.6786,-8.8276,-2.1705,3.1332,2.9711,-0.2152,25.96,131.07,-38.19,0.0,-1.16,52.75,7.31,15.85,64.52,-123.75,0.0,51.272,,,,NaN,,,,0 / 0,2268,2020-10-20 19:54:46:836
5.7687,-7.9957,-0.6131,3.6786,-8.8276,-2.1705,1.9503,0.8176,1.4232,17.73,169.72,-47.43,0.0,-1.16,52.75,7.31,15.85,64.52,-123.75,0.0,51.272,,,,NaN,,,,0 / 0,2274,2020-10-20 19:54:46:842
5.7687,-7.9957,-0.6131,3.8138,-8.8027,-2.0339,1.9503,0.8176,1.4232,17.73,169.72,-47.43,0.0,-1.16,52.75,7.31,15.85,64.52,-123.75,0.0,51.272,,,,NaN,,,,0 / 0,2278,2020-10-20 19:54:46:846
5.7687,-7.9957,-0.6131,3.8138,-8.8027,-2.0339,1.9503,0.8176,1.4232,15.39,162.58,-44.6,0.0,-0.71,50.5,7.01,15.85,64.52,-123.75,0.0,51.272,,,,NaN,,,,0 / 0,2283,2020-10-20 19:54:46:851
5.2829,-9.8406,-0.3715,3.8138,-8.8027,-2.0339,1.2804,-1.0618,1.4634,15.39,162.58,-44.6,0.0,-0.71,50.5,7.01,15.85,64.52,-123.75,0.0,51.272,,,,NaN,,,,0 / 0,2288,2020-10-20 19:54:46:856
5.2829,-9.8406,-0.3715,4.0488,-8.7552,-1.7674,1.2804,-1.0618,1.4634,15.84,149.98,-38.68,0.0,-0.71,50.5,7.01,15.85,64.52,-123.75,0.0,51.272,,,,NaN,,,,0 / 0,2292,2020-10-20 19:54:46:860
4.7254,-10.9102,-0.984,4.0488,-8.7552,-1.7674,0.5765,-2.1535,0.6582,15.84,149.98,-38.68,0.0,-2.36,51.4,6.86,16.6,63.23,-113.58,0.0,51.272,,,,NaN,,,,0 / 0,2298,2020-10-20 19:54:46:866
4.7254,-10.9102,-0.984,4.0488,-8.7552,-1.7674,0.5765,-2.1535,0.6582,15.84,149.98,-38.68,0.0,-2.36,51.4,6.86,16.6,63.23,-113.58,0.0,51.272,,,,NaN,,,,0 / 0,2304,2020-10-20 19:54:46:872
4.7254,-10.9102,-0.984,4.1797,-8.7307,-1.5735,0.5765,-2.1535,0.6582,19.13,142.21,-28.71,0.0,-2.36,51.4,6.86,16.6,63.23,-113.58,0.0,51.272,,,,NaN,,,,0 / 0,2308,2020-10-20 19:54:46:876
3.8018,-11.1255,-1.3764,4.1797,-8.7307,-1.5735,0.5765,-2.1535,0.6582,19.13,142.21,-28.71,0.0,-2.36,51.4,6.86,16.6,63.23,-113.58,0.0,51.272,,,,NaN,,,,0 / 0,2313,2020-10-20 19:54:46:881
3.8018,-11.1255,-1.3764,4.1797,-8.7307,-1.5735,-0.4581,-2.3792,0.0702,19.24,141.23,-17.89,0.0,-4.31,50.65,6.41,16.6,63.23,-113.58,0.0,51.272,,,,NaN,,,,0 / 0,2318,2020-10-20 19:54:46:886
3.8018,-11.1255,-1.3764,4.1797,-8.7307,-1.5735,-0.4581,-2.3792,0.0702,19.24,141.23,-17.89,0.0,-4.31,50.65,6.41,16.6,63.23,-113.58,0.0,51.272,,,,NaN,,,,0 / 0,2323,2020-10-20 19:54:46:891
3.2658,-10.8264,-1.465,4.3002,-8.7152,-1.3128,-1.0714,-2.0816,-0.2109,19.24,141.23,-17.89,0.0,-4.31,50.65,6.41,16.6,63.23,-113.58,0.0,51.272,,,,NaN,,,,0 / 0,2327,2020-10-20 19:54:46:895
3.2658,-10.8264,-1.465,4.3002,-8.7152,-1.3128,-1.0714,-2.0816,-0.2109,14.48,138.11,-9.53,0.0,-4.31,50.65,6.41,16.6,63.23,-113.58,0.0,51.272,,,,NaN,,,,0 / 0,2333,2020-10-20 19:54:46:901
3.2658,-10.8264,-1.465,4.3002,-8.7152,-1.3128,-1.0714,-2.0816,-0.2109,14.48,138.11,-9.53,0.0,-4.31,50.65,6.41,16.6,63.23,-113.58,0.0,51.272,,,,NaN,,,,0 / 0,2338,2020-10-20 19:54:46:906
2.993,-10.4915,-1.4052,4.3576,-8.7123,-1.1298,-1.3814,-1.7457,-0.2711,9.89,134.68,-6.38,0.0,-4.46,50.5,6.56,17.41,62.67,-104.53,0.0,51.272,,,,NaN,,,,0 / 0,2343,2020-10-20 19:54:46:911
2.993,-10.4915,-1.4052,4.3576,-8.7123,-1.1298,-1.3814,-1.7457,-0.2711,9.89,134.68,-6.38,0.0,-4.46,50.5,6.56,17.41,62.67,-104.53,0.0,51.272,,,,NaN,,,,0 / 0,2348,2020-10-20 19:54:46:916
2.993,-10.4915,-1.4052,4.3576,-8.7123,-1.1298,-1.3814,-1.7457,-0.2711,9.89,134.68,-6.38,0.0,-4.46,50.5,6.56,17.41,62.67,-104.53,0.0,51.272,,,,NaN,,,,0 / 0,2352,2020-10-20 19:54:46:920
2.6006,-9.8478,-1.3477,4.4082,-8.7122,-0.9143,-1.8257,-1.0999,-0.4297,4.36,130.24,-3.4,0.0,-5.36,50.65,5.06,17.41,62.67,-104.53,0.0,51.272,,,,NaN,,,,0 / 0,2358,2020-10-20 19:54:46:926
2.6006,-9.8478,-1.3477,4.4082,-8.7122,-0.9143,-1.8257,-1.0999,-0.4297,4.36,130.24,-3.4,0.0,-5.36,50.65,5.06,17.41,62.67,-104.53,0.0,51.272,,,,NaN,,,,0 / 0,2363,2020-10-20 19:54:46:931
2.6006,-9.8478,-1.3477,4.4082,-8.7122,-0.9143,-1.8257,-1.0999,-0.4297,4.36,130.24,-3.4,0.0,-5.36,50.65,5.06,17.41,62.67,-104.53,0.0,51.272,,,,NaN,,,,0 / 0,2367,2020-10-20 19:54:46:935
2.4474,-9.2615,-1.3477,4.4293,-8.7153,-0.7714,-1.9996,-0.5113,-0.5732,-0.61,125.3,1.25,0.0,-5.36,50.65,5.06,17.41,62.67,-104.53,0.0,51.272,,,,NaN,,,,0 / 0,2373,2020-10-20 19:54:46:941
2.4474,-9.2615,-1.3477,4.4293,-8.7153,-0.7714,-1.9996,-0.5113,-0.5732,-0.61,125.3,1.25,0.0,-5.66,52.9,5.36,12.03,62.71,-99.88,0.0,51.272,,,,NaN,,,,0 / 0,2378,2020-10-20 19:54:46:946
2.4474,-9.2615,-1.3477,4.4293,-8.7153,-0.7714,-1.9996,-0.5113,-0.5732,-0.61,125.3,1.25,0.0,-5.66,52.9,5.36,12.03,62.71,-99.88,0.0,51.272,,,,NaN,,,,0 / 0,2382,2020-10-20 19:54:46:950
2.6604,-8.8691,-1.3717,4.4349,-8.7224,-0.6492,-1.7913,-0.1137,-0.72,-6.7,116.97,5.87,0.0,-5.66,52.9,5.36,12.03,62.71,-99.88,0.0,51.272,,,,NaN,,,,0 / 0,2388,2020-10-20 19:54:46:956
2.6604,-8.8691,-1.3717,4.4349,-8.7224,-0.6492,-1.7913,-0.1137,-0.72,-6.7,116.97,5.87,0.0,-5.66,52.9,5.36,12.03,62.71,-99.88,0.0,51.272,,,,NaN,,,,0 / 0,2393,2020-10-20 19:54:46:961
2.6604,-8.8691,-1.3717,4.4349,-8.7224,-0.6492,-1.7913,-0.1137,-0.72,-11.42,108.96,8.08,0.0,-6.41,50.65,4.31,12.03,62.71,-99.88,0.0,51.272,,,,NaN,,,,0 / 0,2398,2020-10-20 19:54:46:966
3.1461,-8.7303,-1.2807,4.4292,-8.7318,-0.5552,-1.2988,0.0324,-0.7236,-11.42,108.96,8.08,0.0,-6.41,50.65,4.31,12.03,62.71,-99.88,0.0,51.272,,,,NaN,,,,0 / 0,2403,2020-10-20 19:54:46:971
3.1461,-8.7303,-1.2807,4.4292,-8.7318,-0.5552,-1.2988,0.0324,-0.7236,-11.42,108.96,8.08,0.0,-6.41,50.65,4.31,12.03,62.71,-99.88,0.0,51.272,,,,NaN,,,,0 / 0,2407,2020-10-20 19:54:46:975
3.1461,-8.7303,-1.2807,4.4292,-8.7318,-0.5552,-1.2988,0.0324,-0.7236,-15.9,98.18,9.41,0.0,-6.41,50.65,4.31,12.03,62.71,-99.88,0.0,51.272,,,,NaN,,,,0 / 0,2412,2020-10-20 19:54:46:980
3.8209,-8.7279,-1.0965,4.418,-8.7411,-0.4946,-0.612,0.0428,-0.6002,-15.9,98.18,9.41,0.0,-6.11,51.85,6.86,19.7,63.04,-96.39,0.0,51.272,,,,NaN,,,,0 / 0,2417,2020-10-20 19:54:46:985
3.8209,-8.7279,-1.0965,4.418,-8.7411,-0.4946,-0.612,0.0428,-0.6002,-20.94,76.09,9.06,0.0,-6.11,51.85,6.86,19.7,63.04,-96.39,0.0,51.272,,,,NaN,,,,0 / 0,2422,2020-10-20 19:54:46:990
3.8209,-8.7279,-1.0965,4.418,-8.7411,-0.4946,-0.612,0.0428,-0.6002,-20.94,76.09,9.06,0.0,-6.11,51.85,6.86,19.7,63.04,-96.39,0.0,51.272,,,,NaN,,,,0 / 0,2427,2020-10-20 19:54:46:995
4.3019,-8.8093,-0.972,4.406,-8.7485,-0.4701,-0.1189,-0.0314,-0.5004,-23.11,58.76,8.43,0.0,-6.11,51.85,6.86,19.7,63.04,-96.39,0.0,51.272,,,,NaN,,,,0 / 0,2432,2020-10-20 19:54:47:000
4.3019,-8.8093,-0.972,4.406,-8.7485,-0.4701,-0.1189,-0.0314,-0.5004,-23.11,58.76,8.43,0.0,-6.11,51.85,6.86,19.7,63.04,-96.39,0.0,51.272,,,,NaN,,,,0 / 0,2438,2020-10-20 19:54:47:006
4.5579,-8.8571,-0.862,4.3979,-8.7524,-0.473,0.1451,-0.0751,-0.3874,-24.23,40.6,7.69,0.0,-5.36,52.15,5.06,19.7,63.04,-96.39,0.0,51.272,,,,NaN,,,,0 / 0,2443,2020-10-20 19:54:47:011
4.5579,-8.8571,-0.862,4.3979,-8.7524,-0.473,0.1451,-0.0751,-0.3874,-24.23,40.6,7.69,0.0,-5.36,52.15,5.06,19.7,63.04,-96.39,0.0,51.272,,,,NaN,,,,0 / 0,2448,2020-10-20 19:54:47:016
4.5579,-8.8571,-0.862,4.3979,-8.7524,-0.473,0.1451,-0.0751,-0.3874,-24.23,40.6,7.69,0.0,-5.36,52.15,5.06,19.7,63.04,-96.39,0.0,51.272,,,,NaN,,,,0 / 0,2452,2020-10-20 19:54:47:020
4.8163,-8.893,-0.6538,4.3827,-8.7575,-0.5179,0.4147,-0.1131,-0.226,-22.27,3.57,5.63,0.0,-5.36,52.15,5.06,19.7,63.04,-96.39,0.0,51.272,,,,NaN,,,,0 / 0,2457,2020-10-20 19:54:47:025
4.8163,-8.893,-0.6538,4.3827,-8.7575,-0.5179,0.4147,-0.1131,-0.226,-22.27,3.57,5.63,0.0,-4.46,53.5,6.26,15.26,63.25,-96.74,0.0,51.272,,,,NaN,,,,0 / 0,2462,2020-10-20 19:54:47:030
4.8163,-8.893,-0.6538,4.3827,-8.7575,-0.5179,0.4147,-0.1131,-0.226,-19.16,-12.78,4.4,0.0,-4.46,53.5,6.26,15.26,63.25,-96.74,0.0,51.272,,,,NaN,,,,0 / 0,2468,2020-10-20 19:54:47:036
4.8163,-8.893,-0.6538,4.3827,-8.7575,-0.5179,0.4147,-0.1131,-0.226,-19.16,-12.78,4.4,0.0,-4.46,53.5,6.26,15.26,63.25,-96.74,0.0,51.272,,,,NaN,,,,0 / 0,2473,2020-10-20 19:54:47:041
4.8331,-8.8476,-0.515,4.3723,-8.7592,-0.574,0.4449,-0.0566,0.0611,-14.92,-26.04,3.35,0.0,-5.06,52.45,4.61,15.26,63.25,-96.74,0.0,51.272,,,,NaN,,,,0 / 0,2481,2020-10-20 19:54:47:049
4.8331,-8.8476,-0.515,4.3723,-8.7592,-0.574,0.4449,-0.0566,0.0611,-14.92,-26.04,3.35,0.0,-5.06,52.45,4.61,15.26,63.25,-96.74,0.0,51.272,,,,NaN,,,,0 / 0,2483,2020-10-20 19:54:47:051
4.8331,-8.8476,-0.515,4.3723,-8.7592,-0.574,0.4449,-0.0566,0.0611,-14.92,-26.04,3.35,0.0,-5.06,52.45,4.61,15.26,63.25,-96.74,0.0,51.272,,,,NaN,,,,0 / 0,2487,2020-10-20 19:54:47:055
4.7422,-8.8571,-0.4696,4.3624,-8.7599,-0.6361,0.3636,-0.0648,0.1689,-10.3,-36.05,2.23,0.0,-5.06,52.45,4.61,15.26,63.25,-96.74,0.0,41.18,,,,NaN,,,,0 / 0,2492,2020-10-20 19:54:47:060
4.7422,-8.8571,-0.4696,4.3624,-8.7599,-0.6361,0.3636,-0.0648,0.1689,-10.3,-36.05,2.23,0.0,-5.36,51.85,5.36,15.26,63.25,-96.74,0.0,41.18,,,,NaN,,,,0 / 0,2499,2020-10-20 19:54:47:067
4.589,-8.8787,-0.4576,4.354,-8.7595,-0.6955,0.2186,-0.0861,0.2405,-3.44,-46.17,0.06,0.0,-5.36,51.85,5.36,13.0,63.29,-98.3,0.0,41.18,,,,NaN,,,,0 / 0,2503,2020-10-20 19:54:47:071
4.589,-8.8787,-0.4576,4.354,-8.7595,-0.6955,0.2186,-0.0861,0.2405,-3.44,-46.17,0.06,0.0,-5.36,51.85,5.36,13.0,63.29,-98.3,0.0,41.18,,,,NaN,,,,0 / 0,2508,2020-10-20 19:54:47:076
4.589,-8.8787,-0.4576,4.354,-8.7595,-0.6955,0.2186,-0.0861,0.2405,-3.44,-46.17,0.06,0.0,-5.36,51.85,5.36,13.0,63.29,-98.3,0.0,41.18,,,,NaN,,,,0 / 0,2512,2020-10-20 19:54:47:080
4.3808,-8.8978,-0.4337,4.3477,-8.7582,-0.7496,0.0166,-0.1062,0.3188,2.16,-53.34,-1.93,0.0,-5.36,51.85,5.36,13.0,63.29,-98.3,0.0,41.18,,,,NaN,,,,0 / 0,2518,2020-10-20 19:54:47:086
4.3808,-8.8978,-0.4337,4.3477,-8.7582,-0.7496,0.0166,-0.1062,0.3188,2.16,-53.34,-1.93,0.0,-6.26,52.0,6.26,13.0,63.29,-98.3,0.0,41.18,,,,NaN,,,,0 / 0,2523,2020-10-20 19:54:47:091
4.3808,-8.8978,-0.4337,4.3477,-8.7582,-0.7496,0.0166,-0.1062,0.3188,4.19,-60.06,-2.95,0.0,-6.26,52.0,6.26,13.0,63.29,-98.3,0.0,41.18,,,,NaN,,,,0 / 0,2527,2020-10-20 19:54:47:095
4.199,-8.9218,-0.3978,4.3417,-8.7562,-0.8058,-0.1593,-0.1321,0.4111,4.19,-60.06,-2.95,0.0,-6.26,52.0,6.26,13.0,63.29,-98.3,0.0,41.18,,,,NaN,,,,0 / 0,2533,2020-10-20 19:54:47:101
4.199,-8.9218,-0.3978,4.3417,-8.7562,-0.8058,-0.1593,-0.1321,0.4111,4.19,-60.06,-2.95,0.0,-6.26,52.0,6.26,13.0,63.29,-98.3,0.0,41.18,,,,NaN,,,,0 / 0,2537,2020-10-20 19:54:47:105
4.199,-8.9218,-0.3978,4.3417,-8.7562,-0.8058,-0.1593,-0.1321,0.4111,2.58,-77.74,-4.14,0.0,-5.36,51.1,6.86,18.9,63.24,-100.51,0.0,41.18,,,,NaN,,,,0 / 0,2543,2020-10-20 19:54:47:111
4.1128,-8.9864,-0.5174,4.3334,-8.7527,-0.8845,-0.2372,-0.2,0.3705,2.58,-77.74,-4.14,0.0,-5.36,51.1,6.86,18.9,63.24,-100.51,0.0,41.18,,,,NaN,,,,0 / 0,2547,2020-10-20 19:54:47:115
4.1128,-8.9864,-0.5174,4.3334,-8.7527,-0.8845,-0.2372,-0.2,0.3705,-1.1,-90.79,-4.7,0.0,-5.36,51.1,6.86,18.9,63.24,-100.51,0.0,41.18,,,,NaN,,,,0 / 0,2553,2020-10-20 19:54:47:121
4.0363,-8.9888,-0.7328,4.3252,-8.7494,-0.9551,-0.3055,-0.2057,0.226,-1.1,-90.79,-4.7,0.0,-5.36,51.1,6.86,18.9,63.24,-100.51,0.0,41.18,,,,NaN,,,,0 / 0,2558,2020-10-20 19:54:47:126
4.0363,-8.9888,-0.7328,4.3252,-8.7494,-0.9551,-0.3055,-0.2057,0.226,-1.1,-90.79,-4.7,0.0,-3.56,51.85,6.41,18.9,63.24,-100.51,0.0,41.18,,,,NaN,,,,0 / 0,2563,2020-10-20 19:54:47:131
4.0363,-8.9888,-0.7328,4.3252,-8.7494,-0.9551,-0.3055,-0.2057,0.226,-6.31,-99.82,-4.24,0.0,-3.56,51.85,6.41,18.9,63.24,-100.51,0.0,41.18,,,,NaN,,,,0 / 0,2567,2020-10-20 19:54:47:135
4.0363,-8.9888,-0.7328,4.3252,-8.7494,-0.9551,-0.3055,-0.2057,0.226,-6.31,-99.82,-4.24,0.0,-3.56,51.85,6.41,18.9,63.24,-100.51,0.0,41.18,,,,NaN,,,,0 / 0,2573,2020-10-20 19:54:47:141
4.0578,-9.0246,-0.9744,4.3077,-8.7438,-1.077,-0.2666,-0.247,0.1068,-8.66,-93.0,-3.19,0.0,-3.56,51.85,6.41,18.9,63.24,-100.51,0.0,41.18,,,,NaN,,,,0 / 0,2578,2020-10-20 19:54:47:146
4.0578,-9.0246,-0.9744,4.3077,-8.7438,-1.077,-0.2666,-0.247,0.1068,-8.66,-93.0,-3.19,0.0,-4.46,51.55,5.96,14.48,63.08,-104.04,0.0,41.18,,,,NaN,,,,0 / 0,2582,2020-10-20 19:54:47:150
4.0578,-9.0246,-0.9744,4.3077,-8.7438,-1.077,-0.2666,-0.247,0.1068,-8.66,-93.0,-3.19,0.0,-4.46,51.55,5.96,14.48,63.08,-104.04,0.0,41.18,,,,NaN,,,,0 / 0,2587,2020-10-20 19:54:47:155
4.1679,-9.0749,-0.929,4.2805,-8.7365,-1.2333,-0.1295,-0.3039,0.3092,-9.15,-84.46,-2.95,0.0,-4.46,51.55,5.96,14.48,63.08,-104.04,0.0,41.18,,,,NaN,,,,0 / 0,2593,2020-10-20 19:54:47:161
4.1679,-9.0749,-0.929,4.2805,-8.7365,-1.2333,-0.1295,-0.3039,0.3092,-9.15,-84.46,-2.95,0.0,-4.46,51.55,5.96,14.48,63.08,-104.04,0.0,41.18,,,,NaN,,,,0 / 0,2597,2020-10-20 19:54:47:165
4.1679,-9.0749,-0.929,4.2805,-8.7365,-1.2333,-0.1295,-0.3039,0.3092,-9.15,-84.46,-2.95,0.0,-5.21,49.75,5.96,14.48,63.08,-104.04,0.0,41.18,,,,NaN,,,,0 / 0,2602,2020-10-20 19:54:47:170
4.1822,-9.0246,-0.7687,4.2614,-8.7308,-1.3355,-0.0962,-0.259,0.5721,-9.46,-73.4,-2.91,0.0,-5.21,49.75,5.96,14.48,63.08,-104.04,0.0,41.18,,,,NaN,,,,0 / 0,2608,2020-10-20 19:54:47:176
4.1822,-9.0246,-0.7687,4.2614,-8.7308,-1.3355,-0.0962,-0.259,0.5721,-9.46,-73.4,-2.91,0.0,-5.21,49.75,5.96,14.48,63.08,-104.04,0.0,41.18,,,,NaN,,,,0 / 0,2612,2020-10-20 19:54:47:180
4.1822,-9.0246,-0.7687,4.2614,-8.7308,-1.3355,-0.0962,-0.259,0.5721,-9.99,-64.96,-3.02,0.0,-5.51,51.55,8.51,22.77,62.91,-107.4,0.0,41.18,,,,NaN,,,,0 / 0,2618,2020-10-20 19:54:47:186
4.1822,-9.0246,-0.7687,4.2614,-8.7308,-1.3355,-0.0962,-0.259,0.5721,-9.99,-64.96,-3.02,0.0,-5.51,51.55,8.51,22.77,62.91,-107.4,0.0,41.18,,,,NaN,,,,0 / 0,2622,2020-10-20 19:54:47:190
4.12,-8.9481,-0.661,4.2385,-8.7227,-1.456,-0.1354,-0.1903,0.8008,-9.99,-64.96,-3.02,0.0,-5.51,51.55,8.51,22.77,62.91,-107.4,0.0,41.18,,,,NaN,,,,0 / 0,2627,2020-10-20 19:54:47:195
4.12,-8.9481,-0.661,4.2385,-8.7227,-1.456,-0.1354,-0.1903,0.8008,-9.64,-58.8,-3.05,0.0,-5.51,51.55,8.51,22.77,62.91,-107.4,0.0,41.18,,,,NaN,,,,0 / 0,2633,2020-10-20 19:54:47:201
4.12,-8.9481,-0.661,4.2385,-8.7227,-1.456,-0.1354,-0.1903,0.8008,-9.64,-58.8,-3.05,0.0,-5.51,51.55,8.51,22.77,62.91,-107.4,0.0,41.18,,,,NaN,,,,0 / 0,2638,2020-10-20 19:54:47:206
4.0411,-8.8883,-0.6179,4.2238,-8.7169,-1.5316,-0.1996,-0.1366,0.9198,-8.48,-50.68,-2.91,0.0,-4.76,52.0,7.31,22.77,62.91,-107.4,0.0,41.18,,,,NaN,,,,0 / 0,2643,2020-10-20 19:54:47:211
4.0411,-8.8883,-0.6179,4.2238,-8.7169,-1.5316,-0.1996,-0.1366,0.9198,-8.48,-50.68,-2.91,0.0,-4.76,52.0,7.31,22.77,62.91,-107.4,0.0,41.18,,,,NaN,,,,0 / 0,2647,2020-10-20 19:54:47:215
4.0411,-8.8883,-0.6179,4.2238,-8.7169,-1.5316,-0.1996,-0.1366,0.9198,-5.33,-35.39,-2.46,0.0,-4.76,52.0,7.31,22.77,62.91,-107.4,0.0,41.18,,,,NaN,,,,0 / 0,2653,2020-10-20 19:54:47:221
4.0267,-8.9289,-0.5892,4.2102,-8.7114,-1.5984,-0.2001,-0.1833,1.0155,-5.33,-35.39,-2.46,0.0,-4.76,52.0,7.31,22.77,62.91,-107.4,0.0,41.18,,,,NaN,,,,0 / 0,2658,2020-10-20 19:54:47:226
4.0267,-8.9289,-0.5892,4.2102,-8.7114,-1.5984,-0.2001,-0.1833,1.0155,-5.33,-35.39,-2.46,0.0,-4.01,50.8,7.31,15.98,62.66,-110.79,0.0,41.18,,,,NaN,,,,0 / 0,2663,2020-10-20 19:54:47:231
4.0267,-8.9289,-0.5892,4.2102,-8.7114,-1.5984,-0.2001,-0.1833,1.0155,-1.31,-18.83,-2.0,0.0,-4.01,50.8,7.31,15.98,62.66,-110.79,0.0,41.18,,,,NaN,,,,0 / 0,2668,2020-10-20 19:54:47:236
4.0267,-8.9289,-0.5892,4.2102,-8.7114,-1.5984,-0.2001,-0.1833,1.0155,-1.31,-18.83,-2.0,0.0,-4.01,50.8,7.31,15.98,62.66,-110.79,0.0,41.18,,,,NaN,,,,0 / 0,2672,2020-10-20 19:54:47:240
4.0195,-9.039,-0.6371,4.2061,-8.7099,-1.6177,-0.2031,-0.295,0.987,1.0,-7.84,-1.2,0.0,-4.01,50.8,7.31,15.98,62.66,-110.79,0.0,41.18,,,,NaN,,,,0 / 0,2677,2020-10-20 19:54:47:245
4.0195,-9.039,-0.6371,4.2061,-8.7099,-1.6177,-0.2031,-0.295,0.987,1.0,-7.84,-1.2,0.0,-2.66,50.2,8.06,15.98,62.66,-110.79,0.0,41.18,,,,NaN,,,,0 / 0,2682,2020-10-20 19:54:47:250
4.1009,-9.1299,-0.8046,4.2059,-8.7109,-1.6127,-0.1217,-0.3845,0.8145,2.72,3.01,-0.15,0.0,-2.66,50.2,8.06,15.98,62.66,-110.79,0.0,41.18,,,,NaN,,,,0 / 0,2688,2020-10-20 19:54:47:256
4.1009,-9.1299,-0.8046,4.2059,-8.7109,-1.6127,-0.1217,-0.3845,0.8145,2.72,3.01,-0.15,0.0,-2.66,50.2,8.06,15.98,62.66,-110.79,0.0,41.18,,,,NaN,,,,0 / 0,2693,2020-10-20 19:54:47:261
4.1009,-9.1299,-0.8046,4.2059,-8.7109,-1.6127,-0.1217,-0.3845,0.8145,3.21,13.05,0.83,0.0,-2.66,50.2,8.06,15.98,62.66,-110.79,0.0,41.18,,,,NaN,,,,0 / 0,2697,2020-10-20 19:54:47:265
4.2253,-9.1012,-1.0343,4.2089,-8.7137,-1.5896,-6.0E-4,-0.3523,0.5617,3.21,13.05,0.83,0.0,-5.66,51.85,7.61,18.16,62.69,-110.69,0.0,41.18,,,,NaN,,,,0 / 0,2703,2020-10-20 19:54:47:271
4.2253,-9.1012,-1.0343,4.2089,-8.7137,-1.5896,-6.0E-4,-0.3523,0.5617,2.61,22.01,1.95,0.0,-5.66,51.85,7.61,18.16,62.69,-110.69,0.0,41.18,,,,NaN,,,,0 / 0,2708,2020-10-20 19:54:47:276
4.2253,-9.1012,-1.0343,4.2089,-8.7137,-1.5896,-6.0E-4,-0.3523,0.5617,2.61,22.01,1.95,0.0,-5.66,51.85,7.61,18.16,62.69,-110.69,0.0,41.18,,,,NaN,,,,0 / 0,2713,2020-10-20 19:54:47:281
4.2636,-8.9816,-1.173,4.2134,-8.7177,-1.5554,0.0329,-0.2281,0.3887,2.61,22.01,1.95,0.0,-5.66,51.85,7.61,18.16,62.69,-110.69,0.0,41.18,,,,NaN,,,,0 / 0,2718,2020-10-20 19:54:47:286
4.2636,-8.9816,-1.173,4.2134,-8.7177,-1.5554,0.0329,-0.2281,0.3887,2.61,22.01,1.95,0.0,-5.66,51.85,7.61,18.16,62.69,-110.69,0.0,41.18,,,,NaN,,,,0 / 0,2723,2020-10-20 19:54:47:291
4.2995,-8.8859,-1.1898,4.2167,-8.7209,-1.5285,0.0803,-0.0889,0.3067,0.65,34.12,3.84,0.0,-4.76,50.8,8.06,18.16,62.69,-110.69,0.0,41.18,,,,NaN,,,,0 / 0,2728,2020-10-20 19:54:47:296
4.2995,-8.8859,-1.1898,4.2167,-8.7209,-1.5285,0.0803,-0.0889,0.3067,0.65,34.12,3.84,0.0,-4.76,50.8,8.06,18.16,62.69,-110.69,0.0,41.18,,,,NaN,,,,0 / 0,2733,2020-10-20 19:54:47:301
4.2995,-8.8859,-1.1898,4.2167,-8.7209,-1.5285,0.0803,-0.0889,0.3067,-1.8,44.52,5.21,0.0,-4.76,50.8,8.06,18.16,62.69,-110.69,0.0,41.18,,,,NaN,,,,0 / 0,2738,2020-10-20 19:54:47:306
4.3378,-8.7854,-1.1946,4.2225,-8.7258,-1.4837,0.0978,-0.0234,0.2953,-1.8,44.52,5.21,0.0,-4.46,52.3,8.81,22.02,62.85,-109.36,0.0,41.18,,,,NaN,,,,0 / 0,2743,2020-10-20 19:54:47:311
4.3378,-8.7854,-1.1946,4.2225,-8.7258,-1.4837,0.0978,-0.0234,0.2953,-3.09,50.19,5.35,0.0,-4.46,52.3,8.81,22.02,62.85,-109.36,0.0,41.18,,,,NaN,,,,0 / 0,2748,2020-10-20 19:54:47:316
4.3378,-8.7854,-1.1946,4.2225,-8.7258,-1.4837,0.0978,-0.0234,0.2953,-3.09,50.19,5.35,0.0,-4.46,52.3,8.81,22.02,62.85,-109.36,0.0,41.18,,,,NaN,,,,0 / 0,2753,2020-10-20 19:54:47:321
4.345,-8.7973,-1.1108,4.2303,-8.7303,-1.4338,0.0971,-0.0307,0.329,-3.79,54.91,5.42,0.0,-4.46,52.3,8.81,22.02,62.85,-109.36,0.0,41.18,,,,NaN,,,,0 / 0,2758,2020-10-20 19:54:47:326
4.345,-8.7973,-1.1108,4.2303,-8.7303,-1.4338,0.0971,-0.0307,0.329,-3.79,54.91,5.42,0.0,-4.46,50.2,8.06,22.02,62.85,-109.36,0.0,41.18,,,,NaN,,,,0 / 0,2763,2020-10-20 19:54:47:331
4.345,-8.7973,-1.1108,4.2303,-8.7303,-1.4338,0.0971,-0.0307,0.329,-3.79,54.91,5.42,0.0,-4.46,50.2,8.06,22.02,62.85,-109.36,0.0,41.18,,,,NaN,,,,0 / 0,2767,2020-10-20 19:54:47:335
4.3138,-8.8571,-1.0056,4.244,-8.736,-1.3567,0.0521,-0.0847,0.3568,-2.67,61.42,4.61,0.0,-4.46,50.2,8.06,22.02,62.85,-109.36,0.0,41.18,,,,NaN,,,,0 / 0,2773,2020-10-20 19:54:47:341
4.3138,-8.8571,-1.0056,4.244,-8.736,-1.3567,0.0521,-0.0847,0.3568,-2.67,61.42,4.61,0.0,-4.46,50.2,8.06,22.02,62.85,-109.36,0.0,41.18,,,,NaN,,,,0 / 0,2778,2020-10-20 19:54:47:346
4.3138,-8.8571,-1.0056,4.244,-8.736,-1.3567,0.0521,-0.0847,0.3568,-2.67,61.42,4.61,0.0,-4.31,50.35,7.16,17.37,62.98,-107.73,0.0,41.18,,,,NaN,,,,0 / 0,2782,2020-10-20 19:54:47:350
4.3138,-8.8571,-1.0056,4.244,-8.736,-1.3567,0.0521,-0.0847,0.3568,-2.67,61.42,4.61,0.0,-4.31,50.35,7.16,17.37,62.98,-107.73,0.0,41.18,,,,NaN,,,,0 / 0,2789,2020-10-20 19:54:47:357
4.2636,-8.8883,-0.9649,4.2561,-8.7402,-1.2904,-0.0104,-0.1115,0.331,-0.36,63.07,3.74,0.0,-4.31,50.35,7.16,17.37,62.98,-107.73,0.0,41.18,,,,NaN,,,,0 / 0,2792,2020-10-20 19:54:47:360
4.2636,-8.8883,-0.9649,4.2561,-8.7402,-1.2904,-0.0104,-0.1115,0.331,-0.36,63.07,3.74,0.0,-4.31,50.35,7.16,17.37,62.98,-107.73,0.0,41.18,,,,NaN,,,,0 / 0,2798,2020-10-20 19:54:47:366
4.2636,-8.8883,-0.9649,4.2561,-8.7402,-1.2904,-0.0104,-0.1115,0.331,2.12,60.97,2.86,0.0,-5.36,54.4,8.66,17.37,62.98,-107.73,0.0,41.18,,,,NaN,,,,0 / 0,2803,2020-10-20 19:54:47:371
4.187,-8.9433,-0.9649,4.2726,-8.7456,-1.1957,-0.1036,-0.1608,0.2358,2.12,60.97,2.86,0.0,-5.36,54.4,8.66,17.37,62.98,-107.73,0.0,41.18,,,,NaN,,,,0 / 0,2808,2020-10-20 19:54:47:376
4.187,-8.9433,-0.9649,4.2726,-8.7456,-1.1957,-0.1036,-0.1608,0.2358,3.21,57.36,2.34,0.0,-5.36,54.4,8.66,17.37,62.98,-107.73,0.0,41.18,,,,NaN,,,,0 / 0,2813,2020-10-20 19:54:47:381
4.187,-8.9433,-0.9649,4.2726,-8.7456,-1.1957,-0.1036,-0.1608,0.2358,3.21,57.36,2.34,0.0,-5.36,54.4,8.66,17.37,62.98,-107.73,0.0,27.422,,,,NaN,,,,0 / 0,2817,2020-10-20 19:54:47:385
4.187,-8.9433,-0.9649,4.2726,-8.7456,-1.1957,-0.1036,-0.1608,0.2358,3.21,57.36,2.34,0.0,-5.36,54.4,8.66,17.37,62.98,-107.73,0.0,27.422,,,,NaN,,,,0 / 0,2823,2020-10-20 19:54:47:391
4.1631,-8.984,-1.0223,4.2834,-8.7494,-1.1277,-0.1385,-0.1973,0.1102,3.73,52.39,1.99,0.0,-6.86,52.15,8.96,23.83,63.1,-105.63,0.0,27.422,,,,NaN,,,,0 / 0,2828,2020-10-20 19:54:47:396
4.1631,-8.984,-1.0223,4.2834,-8.7494,-1.1277,-0.1385,-0.1973,0.1102,3.73,52.39,1.99,0.0,-6.86,52.15,8.96,23.83,63.1,-105.63,0.0,27.422,,,,NaN,,,,0 / 0,2833,2020-10-20 19:54:47:401
4.1631,-8.984,-1.0223,4.2834,-8.7494,-1.1277,-0.1385,-0.1973,0.1102,2.96,42.7,1.46,0.0,-6.86,52.15,8.96,23.83,63.1,-105.63,0.0,27.422,,,,NaN,,,,0 / 0,2837,2020-10-20 19:54:47:405
4.1798,-8.96,-1.1539,4.2944,-8.7531,-1.0541,-0.1331,-0.1691,-0.0953,2.96,42.7,1.46,0.0,-3.86,51.1,7.91,23.83,63.1,-105.63,0.0,27.422,,,,NaN,,,,0 / 0,2843,2020-10-20 19:54:47:411
4.1798,-8.96,-1.1539,4.2944,-8.7531,-1.0541,-0.1331,-0.1691,-0.0953,1.77,35.59,1.11,0.0,-3.86,51.1,7.91,23.83,63.1,-105.63,0.0,27.422,,,,NaN,,,,0 / 0,2848,2020-10-20 19:54:47:416
4.1798,-8.96,-1.1539,4.2944,-8.7531,-1.0541,-0.1331,-0.1691,-0.0953,1.77,35.59,1.11,0.0,-3.86,51.1,7.91,23.83,63.1,-105.63,0.0,27.422,,,,NaN,,,,0 / 0,2853,2020-10-20 19:54:47:421
4.2421,-8.9409,-1.1778,4.3001,-8.7546,-1.0177,-0.1331,-0.1691,-0.0953,1.77,35.59,0.76,0.0,-3.86,51.1,7.91,23.83,63.1,-105.63,0.0,27.422,,,,NaN,,,,0 / 0,2857,2020-10-20 19:54:47:425
4.2421,-8.9409,-1.1778,4.3001,-8.7546,-1.0177,-0.0768,-0.1481,-0.1557,0.27,28.03,0.76,0.0,-5.06,51.1,6.86,18.22,63.22,-103.31,0.0,27.422,,,,NaN,,,,0 / 0,2863,2020-10-20 19:54:47:431
4.2421,-8.9409,-1.1778,4.3001,-8.7546,-1.0177,-0.0768,-0.1481,-0.1557,0.27,28.03,0.76,0.0,-5.06,51.1,6.86,18.22,63.22,-103.31,0.0,27.422,,,,NaN,,,,0 / 0,2868,2020-10-20 19:54:47:436
4.2421,-8.9122,-1.2042,4.3044,-8.7548,-0.9983,-0.0813,-0.1189,-0.2015,-1.83,17.25,-0.04,0.0,-5.06,51.1,6.86,18.22,63.22,-103.31,0.0,27.422,,,,NaN,,,,0 / 0,2873,2020-10-20 19:54:47:441
4.2421,-8.9122,-1.2042,4.3044,-8.7548,-0.9983,-0.0813,-0.1189,-0.2015,-1.83,17.25,-0.04,0.0,-5.06,51.1,6.86,18.22,63.22,-103.31,0.0,27.422,,,,NaN,,,,0 / 0,2878,2020-10-20 19:54:47:446
4.2421,-8.9122,-1.2042,4.3044,-8.7548,-0.9983,-0.0813,-0.1189,-0.2015,-1.83,17.25,-0.04,0.0,-4.76,52.75,9.56,18.22,63.22,-103.31,0.0,27.422,,,,NaN,,,,0 / 0,2882,2020-10-20 19:54:47:450
4.2421,-8.9122,-1.2042,4.3044,-8.7548,-0.9983,-0.0938,-0.1425,-0.1415,-2.78,7.87,-0.78,0.0,-4.76,52.75,9.56,18.22,63.22,-103.31,0.0,27.422,,,,NaN,,,,0 / 0,2888,2020-10-20 19:54:47:456
4.2301,-8.9265,-1.13,4.3069,-8.7539,-0.9948,-0.0938,-0.1425,-0.1415,-2.57,2.55,-1.27,0.0,-4.76,52.75,9.56,18.22,63.22,-103.31,0.0,27.422,,,,NaN,,,,0 / 0,2892,2020-10-20 19:54:47:460
4.2301,-8.9265,-1.13,4.3069,-8.7539,-0.9948,-0.0938,-0.1425,-0.1415,-2.57,2.55,-1.27,0.0,-4.76,52.75,9.56,18.22,63.22,-103.31,0.0,27.422,,,,NaN,,,,0 / 0,2898,2020-10-20 19:54:47:466
4.2301,-8.9265,-1.13,4.3069,-8.7539,-0.9948,-0.1327,-0.1528,-0.0929,-2.57,2.55,-1.27,0.0,-5.06,51.4,8.66,24.43,63.21,-103.01,0.0,27.422,,,,NaN,,,,0 / 0,2903,2020-10-20 19:54:47:471
4.1774,-8.9696,-1.0893,4.306,-8.7536,-1.0015,-0.1327,-0.1528,-0.0929,-1.87,-2.0,-1.72,0.0,-5.06,51.4,8.66,24.43,63.21,-103.01,0.0,27.422,,,,NaN,,,,0 / 0,2908,2020-10-20 19:54:47:476
4.1774,-8.9696,-1.0893,4.306,-8.7536,-1.0015,-0.1702,-0.1841,-0.0245,-1.87,-2.0,-1.72,0.0,-5.06,51.4,8.66,24.43,63.21,-103.01,0.0,27.422,,,,NaN,,,,0 / 0,2912,2020-10-20 19:54:47:480
4.1774,-8.9696,-1.0893,4.306,-8.7536,-1.0015,-0.1702,-0.1841,-0.0245,-0.08,-8.37,-2.21,0.0,-5.06,51.4,8.66,24.43,63.21,-103.01,0.0,27.422,,,,NaN,,,,0 / 0,2917,2020-10-20 19:54:47:485
4.1774,-8.9696,-1.0893,4.306,-8.7536,-1.0015,-0.1702,-0.1841,-0.0245,-0.08,-8.37,-2.21,0.0,-5.06,51.4,8.66,24.43,63.21,-103.01,0.0,27.422,,,,NaN,,,,0 / 0,2922,2020-10-20 19:54:47:490
4.1607,-9.0007,-1.0103,4.3028,-8.7538,-1.0135,-0.1644,-0.2016,0.0084,-0.08,-8.37,-2.21,0.0,-5.96,51.25,7.76,24.43,63.21,-103.01,0.0,27.422,,,,NaN,,,,0 / 0,2928,2020-10-20 19:54:47:496
4.1607,-9.0007,-1.0103,4.3028,-8.7538,-1.0135,-0.1644,-0.2016,0.0084,0.93,-15.12,-2.67,0.0,-5.96,51.25,7.76,24.43,63.21,-103.01,0.0,27.422,,,,NaN,,,,0 / 0,2932,2020-10-20 19:54:47:500
4.1607,-9.0007,-1.0103,4.3028,-8.7538,-1.0135,-0.1644,-0.2016,0.0084,0.93,-15.12,-2.67,0.0,-5.96,51.25,7.76,24.43,63.21,-103.01,0.0,27.422,,,,NaN,,,,0 / 0,2938,2020-10-20 19:54:47:506
4.1535,-9.0151,-0.9673,4.2994,-8.7539,-1.0266,-0.1694,-0.2134,0.065,0.93,-15.12,-2.67,0.0,-5.36,49.9,8.66,24.94,63.21,-103.43,0.0,27.422,,,,NaN,,,,0 / 0,2943,2020-10-20 19:54:47:511
4.1535,-9.0151,-0.9673,4.2994,-8.7539,-1.0266,-0.1694,-0.2134,0.065,1.04,-23.07,-2.98,0.0,-5.36,49.9,8.66,24.94,63.21,-103.43,0.0,27.422,,,,NaN,,,,0 / 0,2947,2020-10-20 19:54:47:515
4.1535,-9.0151,-0.9673,4.2994,-8.7539,-1.0266,-0.1694,-0.2134,0.065,1.04,-23.07,-2.98,0.0,-5.36,49.9,8.66,24.94,63.21,-103.43,0.0,27.422,,,,NaN,,,,0 / 0,2953,2020-10-20 19:54:47:521
4.0674,-8.9385,-0.8907,4.2919,-8.7542,-1.0552,-0.2486,-0.1352,0.1704,0.48,-28.49,-3.26,0.0,-5.36,49.9,8.66,24.94,63.21,-103.43,0.0,27.422,,,,NaN,,,,0 / 0,2958,2020-10-20 19:54:47:526
4.0674,-8.9385,-0.8907,4.2919,-8.7542,-1.0552,-0.2486,-0.1352,0.1704,0.48,-28.49,-3.26,0.0,-3.41,52.75,8.06,24.94,63.21,-103.43,0.0,27.422,,,,NaN,,,,0 / 0,2962,2020-10-20 19:54:47:530
4.0674,-8.9385,-0.8907,4.2919,-8.7542,-1.0552,-0.2486,-0.1352,0.1704,0.48,-28.49,-3.26,0.0,-3.41,52.75,8.06,24.94,63.21,-103.43,0.0,27.422,,,,NaN,,,,0 / 0,2968,2020-10-20 19:54:47:536
4.0315,-8.9289,-0.8692,4.2841,-8.7542,-1.0869,-0.2762,-0.1265,0.2238,-0.57,-35.39,-3.51,0.0,-3.41,52.75,8.06,24.94,63.21,-103.43,0.0,27.422,,,,NaN,,,,0 / 0,2973,2020-10-20 19:54:47:541
4.0315,-8.9289,-0.8692,4.2841,-8.7542,-1.0869,-0.2762,-0.1265,0.2238,-0.57,-35.39,-3.51,0.0,-3.41,52.75,8.06,24.94,63.21,-103.43,0.0,27.422,,,,NaN,,,,0 / 0,2977,2020-10-20 19:54:47:545
4.0315,-8.9289,-0.8692,4.2841,-8.7542,-1.0869,-0.2762,-0.1265,0.2238,-0.57,-35.39,-3.51,0.0,-6.56,50.5,8.81,25.09,63.21,-104.24,0.0,27.422,,,,NaN,,,,0 / 0,2983,2020-10-20 19:54:47:551
4.0147,-8.9935,-0.8141,4.2742,-8.7545,-1.1229,-0.2829,-0.191,0.3149,-0.75,-39.27,-3.47,0.0,-6.56,50.5,8.81,25.09,63.21,-104.24,0.0,27.422,,,,NaN,,,,0 / 0,2988,2020-10-20 19:54:47:556
4.0147,-8.9935,-0.8141,4.2742,-8.7545,-1.1229,-0.2829,-0.191,0.3149,-0.75,-39.27,-3.47,0.0,-6.56,50.5,8.81,25.09,63.21,-104.24,0.0,27.422,,,,NaN,,,,0 / 0,2993,2020-10-20 19:54:47:561
4.0147,-8.9935,-0.8141,4.2742,-8.7545,-1.1229,-0.2829,-0.191,0.3149,-0.15,-39.9,-3.16,0.0,-6.56,50.5,8.81,25.09,63.21,-104.24,0.0,27.422,,,,NaN,,,,0 / 0,2998,2020-10-20 19:54:47:566
4.0865,-9.0869,-0.7878,4.2633,-8.7553,-1.1569,-0.2012,-0.2815,0.3757,-0.15,-39.9,-3.16,0.0,-3.56,51.4,8.66,25.09,63.21,-104.24,0.0,27.422,,,,NaN,,,,0 / 0,3003,2020-10-20 19:54:47:571
4.0865,-9.0869,-0.7878,4.2633,-8.7553,-1.1569,-0.2012,-0.2815,0.3757,0.83,-39.59,-2.81,0.0,-3.56,51.4,8.66,25.09,63.21,-104.24,0.0,27.422,,,,NaN,,,,0 / 0,3009,2020-10-20 19:54:47:577
4.0865,-9.0869,-0.7878,4.2633,-8.7553,-1.1569,-0.2012,-0.2815,0.3757,0.83,-39.59,-2.81,0.0,-3.56,51.4,8.66,25.09,63.21,-104.24,0.0,27.422,,,,NaN,,,,0 / 0,3012,2020-10-20 19:54:47:580
4.0865,-9.0869,-0.7878,4.2633,-8.7553,-1.1569,-0.2012,-0.2815,0.3757,0.83,-39.59,-2.81,0.0,-3.56,51.4,8.66,25.09,63.21,-104.24,0.0,27.422,,,,NaN,,,,0 / 0,3017,2020-10-20 19:54:47:585
4.0865,-9.0869,-0.7878,4.2633,-8.7553,-1.1569,-0.2012,-0.2815,0.3757,0.83,-39.59,-2.81,0.0,-3.56,51.4,8.66,25.09,63.21,-104.24,0.0,27.422,,,,NaN,,,,0 / 0,3023,2020-10-20 19:54:47:591
4.1535,-9.1012,-0.7998,4.2519,-8.757,-1.1861,-0.1244,-0.2908,0.3935,1.7,-38.68,-2.28,0.0,-5.06,51.4,6.86,17.64,63.25,-105.59,0.0,27.422,,,,NaN,,,,0 / 0,3028,2020-10-20 19:54:47:596
4.1535,-9.1012,-0.7998,4.2519,-8.757,-1.1861,-0.1244,-0.2908,0.3935,1.7,-38.68,-2.28,0.0,-5.06,51.4,6.86,17.64,63.25,-105.59,0.0,27.422,,,,NaN,,,,0 / 0,3033,2020-10-20 19:54:47:601
4.1535,-9.1012,-0.7998,4.2519,-8.757,-1.1861,-0.1244,-0.2908,0.3935,1.7,-38.68,-2.28,0.0,-5.06,51.4,6.86,17.64,63.25,-105.59,0.0,27.422,,,,NaN,,,,0 / 0,3038,2020-10-20 19:54:47:606
4.3282,-9.0103,-0.9457,4.2349,-8.7593,-1.2295,0.0647,-0.1918,0.292,1.56,-34.76,-0.99,0.0,-5.06,51.4,6.86,17.64,63.25,-105.59,0.0,27.422,,,,NaN,,,,0 / 0,3043,2020-10-20 19:54:47:611
4.3282,-9.0103,-0.9457,4.2349,-8.7593,-1.2295,0.0647,-0.1918,0.292,1.56,-34.76,-0.99,0.0,-5.36,50.35,6.86,17.64,63.25,-105.59,0.0,27.422,,,,NaN,,,,0 / 0,3048,2020-10-20 19:54:47:616
4.3282,-9.0103,-0.9457,4.2349,-8.7593,-1.2295,0.0647,-0.1918,0.292,0.9,-31.64,-0.67,0.0,-5.36,50.35,6.86,17.64,63.25,-105.59,0.0,27.422,,,,NaN,,,,0 / 0,3053,2020-10-20 19:54:47:621
4.4096,-8.9505,-0.9744,4.2277,-8.7593,-1.2536,0.1518,-0.1288,0.2881,0.9,-31.64,-0.67,0.0,-5.36,50.35,6.86,17.64,63.25,-105.59,0.0,27.422,,,,NaN,,,,0 / 0,3058,2020-10-20 19:54:47:626
4.4096,-8.9505,-0.9744,4.2277,-8.7593,-1.2536,0.1518,-0.1288,0.2881,-0.15,-25.2,-0.25,0.0,-6.26,50.8,8.51,24.05,63.28,-106.52,0.0,27.422,,,,NaN,,,,0 / 0,3063,2020-10-20 19:54:47:631
4.4096,-8.9505,-0.9744,4.2277,-8.7593,-1.2536,0.1518,-0.1288,0.2881,-0.15,-25.2,-0.25,0.0,-6.26,50.8,8.51,24.05,63.28,-106.52,0.0,27.422,,,,NaN,,,,0 / 0,3068,2020-10-20 19:54:47:636
4.4096,-8.9505,-0.9744,4.2277,-8.7593,-1.2536,0.1518,-0.1288,0.2881,-0.15,-25.2,-0.25,0.0,-6.26,50.8,8.51,24.05,63.28,-106.52,0.0,27.422,,,,NaN,,,,0 / 0,3073,2020-10-20 19:54:47:641
4.4885,-8.8787,-0.9314,4.2231,-8.7581,-1.277,0.2337,-0.0548,0.3552,-0.54,-20.34,-0.08,0.0,-6.26,50.8,8.51,24.05,63.28,-106.52,0.0,27.422,,,,NaN,,,,0 / 0,3078,2020-10-20 19:54:47:646
4.4885,-8.8787,-0.9314,4.2231,-8.7581,-1.277,0.2337,-0.0548,0.3552,-0.54,-20.34,-0.08,0.0,-6.26,50.8,8.51,24.05,63.28,-106.52,0.0,27.422,,,,NaN,,,,0 / 0,3082,2020-10-20 19:54:47:650
4.4885,-8.8787,-0.9314,4.2231,-8.7581,-1.277,0.2337,-0.0548,0.3552,-0.54,-20.34,-0.08,0.0,-5.06,50.35,8.96,24.05,63.28,-106.52,0.0,27.422,,,,NaN,,,,0 / 0,3088,2020-10-20 19:54:47:656
4.4646,-8.8356,-0.8261,4.2229,-8.7571,-1.2846,0.2094,-0.0116,0.4684,-0.78,-13.16,-0.01,0.0,-5.06,50.35,8.96,24.05,63.28,-106.52,0.0,27.422,,,,NaN,,,,0 / 0,3093,2020-10-20 19:54:47:661
4.4646,-8.8356,-0.8261,4.2229,-8.7571,-1.2846,0.2094,-0.0116,0.4684,-0.78,-13.16,-0.01,0.0,-5.06,50.35,8.96,24.05,63.28,-106.52,0.0,27.422,,,,NaN,,,,0 / 0,3098,2020-10-20 19:54:47:666
4.4646,-8.8356,-0.8261,4.2229,-8.7571,-1.2846,0.2094,-0.0116,0.4684,-0.05,-6.9,0.24,0.0,-5.06,50.35,8.96,24.05,63.28,-106.52,0.0,27.422,,,,NaN,,,,0 / 0,3103,2020-10-20 19:54:47:671
4.4646,-8.8978,-0.7304,4.225,-8.7569,-1.2789,0.2064,-0.0721,0.5586,-0.05,-6.9,0.24,0.0,-6.56,51.55,7.76,20.1,63.25,-106.92,0.0,27.422,,,,NaN,,,,0 / 0,3108,2020-10-20 19:54:47:676
4.4646,-8.8978,-0.7304,4.225,-8.7569,-1.2789,0.2064,-0.0721,0.5586,-0.05,-6.9,0.24,0.0,-6.56,51.55,7.76,20.1,63.25,-106.92,0.0,27.422,,,,NaN,,,,0 / 0,3113,2020-10-20 19:54:47:681
4.4646,-8.8978,-0.7304,4.225,-8.7569,-1.2789,0.2064,-0.0721,0.5586,1.7,-0.46,0.52,0.0,-6.56,51.55,7.76,20.1,63.25,-106.92,0.0,27.422,,,,NaN,,,,0 / 0,3118,2020-10-20 19:54:47:686
4.4646,-8.8978,-0.7304,4.225,-8.7569,-1.2789,0.2064,-0.0721,0.5586,1.7,-0.46,0.52,0.0,-6.56,51.55,7.76,20.1,63.25,-106.92,0.0,27.422,,,,NaN,,,,0 / 0,3122,2020-10-20 19:54:47:690
4.4718,-8.917,-0.7328,4.228,-8.758,-1.2617,0.2095,-0.0881,0.5391,3.28,3.67,0.59,0.0,-4.46,51.55,6.26,20.1,63.25,-106.92,0.0,27.422,,,,NaN,,,,0 / 0,3128,2020-10-20 19:54:47:696
4.4718,-8.917,-0.7328,4.228,-8.758,-1.2617,0.2095,-0.0881,0.5391,3.28,3.67,0.59,0.0,-4.46,51.55,6.26,20.1,63.25,-106.92,0.0,27.422,,,,NaN,,,,0 / 0,3132,2020-10-20 19:54:47:700
4.4981,-8.8859,-0.8141,4.2326,-8.7596,-1.2352,0.2303,-0.0533,0.4313,3.28,3.67,0.59,0.0,-4.46,51.55,6.26,20.1,63.25,-106.92,0.0,27.422,,,,NaN,,,,0 / 0,3138,2020-10-20 19:54:47:706
4.4981,-8.8859,-0.8141,4.2326,-8.7596,-1.2352,0.2303,-0.0533,0.4313,4.78,8.61,0.94,0.0,-4.46,51.55,6.26,20.1,63.25,-106.92,0.0,19.471,,,,NaN,,,,0 / 0,3142,2020-10-20 19:54:47:710
4.4981,-8.8859,-0.8141,4.2326,-8.7596,-1.2352,0.2303,-0.0533,0.4313,4.78,8.61,0.94,0.0,-5.36,49.9,8.21,21.2,63.28,-106.27,0.0,19.471,,,,NaN,,,,0 / 0,3148,2020-10-20 19:54:47:716
4.5388,-8.8476,-0.8859,4.2389,-8.7607,-1.2048,0.2636,-0.0119,0.3292,4.78,8.61,0.94,0.0,-5.36,49.9,8.21,21.2,63.28,-106.27,0.0,19.471,,,,NaN,,,,0 / 0,3153,2020-10-20 19:54:47:721
4.5388,-8.8476,-0.8859,4.2389,-8.7607,-1.2048,0.2636,-0.0119,0.3292,4.61,11.02,1.04,0.0,-5.36,49.9,8.21,21.2,63.28,-106.27,0.0,19.471,,,,NaN,,,,0 / 0,3157,2020-10-20 19:54:47:725
4.5388,-8.8476,-0.8859,4.2389,-8.7607,-1.2048,0.2636,-0.0119,0.3292,4.61,11.02,1.04,0.0,-5.36,49.9,8.21,21.2,63.28,-106.27,0.0,19.471,,,,NaN,,,,0 / 0,3162,2020-10-20 19:54:47:730
4.601,-8.8548,-0.9074,4.2468,-8.7609,-1.1753,0.3166,-0.0163,0.2782,4.61,11.02,1.04,0.0,-3.71,50.5,9.56,21.2,63.28,-106.27,0.0,19.471,,,,NaN,,,,0 / 0,3168,2020-10-20 19:54:47:736
4.601,-8.8548,-0.9074,4.2468,-8.7609,-1.1753,0.3166,-0.0163,0.2782,4.61,11.02,1.04,0.0,-3.71,50.5,9.56,21.2,63.28,-106.27,0.0,19.471,,,,NaN,,,,0 / 0,3173,2020-10-20 19:54:47:741
4.601,-8.8548,-0.9074,4.2468,-8.7609,-1.1753,0.3166,-0.0163,0.2782,3.73,11.97,0.76,0.0,-3.71,50.5,9.56,21.2,63.28,-106.27,0.0,19.471,,,,NaN,,,,0 / 0,3178,2020-10-20 19:54:47:746
4.522,-8.8093,-0.8357,4.2553,-8.7606,-1.1469,0.2282,0.0306,0.3217,3.73,11.97,0.76,0.0,-3.71,51.25,7.76,20.78,63.29,-105.08,0.0,19.471,,,,NaN,,,,0 / 0,3183,2020-10-20 19:54:47:751
4.522,-8.8093,-0.8357,4.2553,-8.7606,-1.1469,0.2282,0.0306,0.3217,3.35,11.27,-0.22,0.0,-3.71,51.25,7.76,20.78,63.29,-105.08,0.0,19.471,,,,NaN,,,,0 / 0,3188,2020-10-20 19:54:47:756
4.522,-8.8093,-0.8357,4.2603,-8.7606,-1.1279,0.2282,0.0306,0.3217,3.35,11.27,-0.22,0.0,-3.71,51.25,7.76,20.78,63.29,-105.08,0.0,19.471,,,,NaN,,,,0 / 0,3192,2020-10-20 19:54:47:760
4.3306,-8.8308,-0.7304,4.2603,-8.7606,-1.1279,0.0299,0.0088,0.3978,3.73,10.5,-0.92,0.0,-3.71,51.25,7.76,20.78,63.29,-105.08,0.0,19.471,,,,NaN,,,,0 / 0,3198,2020-10-20 19:54:47:766
4.3306,-8.8308,-0.7304,4.2603,-8.7606,-1.1279,0.0299,0.0088,0.3978,3.73,10.5,-0.92,0.0,-3.71,51.25,7.76,20.78,63.29,-105.08,0.0,19.471,,,,NaN,,,,0 / 0,3202,2020-10-20 19:54:47:770
4.3306,-8.8308,-0.7304,4.2603,-8.7606,-1.1279,0.0299,0.0088,0.3978,3.73,10.5,-0.92,0.0,-3.71,51.25,7.76,20.78,63.29,-105.08,0.0,19.471,,,,NaN,,,,0 / 0,3208,2020-10-20 19:54:47:776
4.254,-8.9098,-0.6873,4.2658,-8.7618,-1.0975,-0.0499,-0.0695,0.42,4.92,9.38,-1.41,0.0,-5.21,49.75,8.06,20.78,63.29,-105.08,0.0,19.471,,,,NaN,,,,0 / 0,3212,2020-10-20 19:54:47:780
4.254,-8.9098,-0.6873,4.2658,-8.7618,-1.0975,-0.0499,-0.0695,0.42,4.92,9.38,-1.41,0.0,-5.21,49.75,8.06,20.78,63.29,-105.08,0.0,19.471,,,,NaN,,,,0 / 0,3218,2020-10-20 19:54:47:786
4.254,-8.9098,-0.6873,4.2658,-8.7618,-1.0975,-0.0499,-0.0695,0.42,7.62,7.94,-1.9,0.0,-5.21,49.75,8.06,20.78,63.29,-105.08,0.0,19.471,,,,NaN,,,,0 / 0,3223,2020-10-20 19:54:47:791
4.2133,-9.0151,-0.783,4.2705,-8.765,-1.0525,-0.0964,-0.1697,0.2791,7.62,7.94,-1.9,0.0,-4.61,50.35,6.86,18.65,63.35,-103.84,0.0,19.471,,,,NaN,,,,0 / 0,3228,2020-10-20 19:54:47:796
4.2133,-9.0151,-0.783,4.2705,-8.765,-1.0525,-0.0964,-0.1697,0.2791,7.62,7.94,-1.9,0.0,-4.61,50.35,6.86,18.65,63.35,-103.84,0.0,19.471,,,,NaN,,,,0 / 0,3233,2020-10-20 19:54:47:801
4.2133,-9.0151,-0.783,4.2705,-8.765,-1.0525,-0.0964,-0.1697,0.2791,9.37,6.51,-2.07,0.0,-4.61,50.35,6.86,18.65,63.35,-103.84,0.0,19.471,,,,NaN,,,,0 / 0,3238,2020-10-20 19:54:47:806
4.2133,-9.0151,-0.783,4.2705,-8.765,-1.0525,-0.0964,-0.1697,0.2791,9.37,6.51,-2.07,0.0,-4.61,50.35,6.86,18.65,63.35,-103.84,0.0,19.471,,,,NaN,,,,0 / 0,3242,2020-10-20 19:54:47:810
4.1942,-8.9911,-0.929,4.2734,-8.7674,-1.0205,-0.1191,-0.1418,0.1011,9.44,5.88,-2.0,0.0,-4.76,51.25,5.96,18.65,63.35,-103.84,0.0,19.471,,,,NaN,,,,0 / 0,3247,2020-10-20 19:54:47:815
4.1942,-8.9911,-0.929,4.2734,-8.7674,-1.0205,-0.1191,-0.1418,0.1011,9.44,5.88,-2.0,0.0,-4.76,51.25,5.96,18.65,63.35,-103.84,0.0,19.471,,,,NaN,,,,0 / 0,3252,2020-10-20 19:54:47:820
4.1942,-8.9911,-0.929,4.2746,-8.7702,-0.9912,-0.1191,-0.1418,0.1011,9.44,5.88,-2.0,0.0,-4.76,51.25,5.96,18.65,63.35,-103.84,0.0,19.471,,,,NaN,,,,0 / 0,3258,2020-10-20 19:54:47:826
4.2062,-8.9337,-1.0989,4.2746,-8.7702,-0.9912,-0.109,-0.0802,-0.0983,7.16,2.87,-1.06,0.0,-4.76,51.25,5.96,18.65,63.35,-103.84,0.0,19.471,,,,NaN,,,,0 / 0,3263,2020-10-20 19:54:47:831
4.2062,-8.9337,-1.0989,4.2746,-8.7702,-0.9912,-0.109,-0.0802,-0.0983,7.16,2.87,-1.06,0.0,-4.76,51.55,5.96,14.92,63.42,-103.05,0.0,19.471,,,,NaN,,,,0 / 0,3268,2020-10-20 19:54:47:836
4.2062,-8.9337,-1.0989,4.2736,-8.7717,-0.9822,-0.0818,-0.0091,-0.1887,3.8,1.57,-0.15,0.0,-4.76,51.55,5.96,14.92,63.42,-103.05,0.0,19.471,,,,NaN,,,,0 / 0,3272,2020-10-20 19:54:47:840
4.2397,-8.8021,-1.1874,4.2736,-8.7717,-0.9822,-0.0818,-0.0091,-0.1887,3.8,1.57,-0.15,0.0,-4.76,51.55,5.96,14.92,63.42,-103.05,0.0,19.471,,,,NaN,,,,0 / 0,3277,2020-10-20 19:54:47:845
