accel_x,accel_y,accel_z,grav_x,grav_y,grav_z,lin_acc_x,lin_acc_y,lin_acc_z,gyro_x,gyro_y,gyro_z,light,magn_x,magn_y,magn_z,orien_z,orien_x,orien_y,prox,sound,latitude,longitude,altitude,altit_google,speed,accuracy,orient,satellites,time,time_stamp
-0.3546,3.8224,7.8958,-0.1768,4.1731,8.8727,-0.1748,-0.1884,-1.0556,14.46,20.2,-13.55,71.0,30.19,34.09,-27.44,324.87,-24.54,0.56,5.0,36.039,,,,NaN,,,,0 / 0,10,2020-10-20 19:36:32:301
-0.1942,3.9564,7.7929,-0.1768,4.1731,8.8727,-0.1748,-0.1884,-1.0556,10.33,24.68,-9.49,71.0,30.19,34.09,-27.44,324.87,-24.54,0.56,5.0,36.039,,,,NaN,,,,0 / 0,15,2020-10-20 19:36:32:306
-0.1942,3.9564,7.7929,-0.2415,4.1969,8.8599,-0.1748,-0.1884,-1.0556,10.33,24.68,-9.49,71.0,29.89,33.64,-27.29,325.54,-25.34,1.56,5.0,36.039,,,,NaN,,,,0 / 0,20,2020-10-20 19:36:32:311
-0.1942,3.9564,7.7929,-0.2415,4.1969,8.8599,-0.1748,-0.1884,-1.0556,10.33,24.68,-9.49,71.0,29.89,33.64,-27.29,325.54,-25.34,1.56,5.0,36.039,,,,NaN,,,,0 / 0,25,2020-10-20 19:36:32:316
0.5212,3.8727,7.9029,-0.2415,4.1969,8.8599,0.7841,-0.3401,-0.9791,5.47,25.1,-9.59,71.0,29.89,33.64,-27.29,325.54,-25.34,1.56,5.0,36.039,,,,NaN,,,,0 / 0,31,2020-10-20 19:36:32:322
0.5212,3.8727,7.9029,-0.301,4.2032,8.8551,0.7841,-0.3401,-0.9791,5.47,25.1,-9.59,71.0,29.89,33.64,-27.29,325.54,-25.34,1.56,5.0,36.039,,,,NaN,,,,0 / 0,36,2020-10-20 19:36:32:327
0.5212,3.8727,7.9029,-0.301,4.2032,8.8551,0.7841,-0.3401,-0.9791,-1.04,19.95,-18.06,71.0,29.89,33.64,-27.29,325.54,-25.34,1.56,5.0,36.039,,,,NaN,,,,0 / 0,41,2020-10-20 19:36:32:332
0.5475,4.0402,8.7069,-0.301,4.2032,8.8551,0.887,-0.1694,-0.1681,-1.04,19.95,-18.06,71.0,29.59,34.24,-26.24,325.54,-25.34,1.56,5.0,36.039,,,,NaN,,,,0 / 0,45,2020-10-20 19:36:32:336
0.5475,4.0402,8.7069,-0.353,4.1985,8.8554,0.887,-0.1694,-0.1681,-1.43,10.47,-23.03,71.0,29.59,34.24,-26.24,325.54,-25.34,1.56,5.0,36.039,,,,NaN,,,,0 / 0,50,2020-10-20 19:36:32:341
0.5475,4.0402,8.7069,-0.353,4.1985,8.8554,0.887,-0.1694,-0.1681,-1.43,10.47,-23.03,71.0,29.59,34.24,-26.24,325.54,-25.34,1.56,5.0,36.039,,,,NaN,,,,0 / 0,56,2020-10-20 19:36:32:347
0.2771,4.2699,8.159,-0.366,4.1936,8.8572,0.6439,0.0683,-0.7151,-3.67,-6.44,-28.49,58.0,32.29,33.34,-27.44,323.65,-25.32,2.37,5.0,36.039,,,,NaN,,,,0 / 0,65,2020-10-20 19:36:32:356
0.2771,4.2699,8.159,-0.366,4.1936,8.8572,0.6439,0.0683,-0.7151,-3.67,-6.44,-28.49,58.0,32.29,33.34,-27.44,323.65,-25.32,2.37,5.0,36.039,,,,NaN,,,,0 / 0,66,2020-10-20 19:36:32:357
0.2771,4.2699,8.159,-0.366,4.1936,8.8572,0.6439,0.0683,-0.7151,-3.67,-6.44,-28.49,58.0,32.29,33.34,-27.44,323.65,-25.32,2.37,5.0,36.039,,,,NaN,,,,0 / 0,71,2020-10-20 19:36:32:362
0.2771,4.2699,8.159,-0.366,4.1936,8.8572,0.6439,0.0683,-0.7151,-3.67,-6.44,-28.49,58.0,32.29,33.34,-27.44,323.65,-25.32,2.37,5.0,36.039,,,,NaN,,,,0 / 0,75,2020-10-20 19:36:32:366
-0.9982,4.7604,9.0252,-0.3404,4.1684,8.8701,-0.6572,0.5844,0.1389,-10.74,-32.86,-34.58,58.0,31.39,32.44,-26.24,323.65,-25.32,2.37,5.0,36.039,,,,NaN,,,,0 / 0,81,2020-10-20 19:36:32:372
-0.9982,4.7604,9.0252,-0.3404,4.1684,8.8701,-0.6572,0.5844,0.1389,-10.74,-32.86,-34.58,58.0,31.39,32.44,-26.24,323.65,-25.32,2.37,5.0,36.039,,,,NaN,,,,0 / 0,86,2020-10-20 19:36:32:377
-0.9982,4.7604,9.0252,-0.3404,4.1684,8.8701,-0.6572,0.5844,0.1389,-10.74,-32.86,-34.58,58.0,31.39,32.44,-26.24,323.65,-25.32,2.37,5.0,36.039,,,,NaN,,,,0 / 0,91,2020-10-20 19:36:32:382
-0.4814,4.9064,9.7287,-0.2911,4.1492,8.8809,-0.1896,0.7472,0.8264,-5.59,-40.39,-34.09,58.0,31.39,32.44,-26.24,323.65,-25.32,2.37,5.0,36.039,,,,NaN,,,,0 / 0,95,2020-10-20 19:36:32:386
-0.4814,4.9064,9.7287,-0.2911,4.1492,8.8809,-0.1896,0.7472,0.8264,-5.59,-40.39,-34.09,58.0,30.49,33.04,-27.14,325.11,-25.03,1.88,5.0,36.039,,,,NaN,,,,0 / 0,101,2020-10-20 19:36:32:392
-0.0842,4.7149,9.664,-0.2369,4.1482,8.8829,0.1535,0.554,0.7538,2.39,-41.47,-37.21,58.0,30.49,33.04,-27.14,325.11,-25.03,1.88,5.0,36.039,,,,NaN,,,,0 / 0,107,2020-10-20 19:36:32:398
-0.0842,4.7149,9.664,-0.2369,4.1482,8.8829,0.1535,0.554,0.7538,2.39,-41.47,-37.21,58.0,30.49,33.04,-27.14,325.11,-25.03,1.88,5.0,36.039,,,,NaN,,,,0 / 0,111,2020-10-20 19:36:32:402
-0.0842,4.7149,9.664,-0.2369,4.1482,8.8829,0.1535,0.554,0.7538,5.5,-48.58,-38.29,58.0,30.49,33.04,-27.14,325.11,-25.03,1.88,5.0,36.039,,,,NaN,,,,0 / 0,115,2020-10-20 19:36:32:406
-0.7231,4.1072,9.2405,-0.1694,4.1582,8.8798,-0.5531,-0.065,0.3309,5.5,-48.58,-38.29,58.0,30.79,33.79,-27.89,325.11,-25.03,1.88,5.0,36.039,,,,NaN,,,,0 / 0,120,2020-10-20 19:36:32:411
-0.7231,4.1072,9.2405,-0.1694,4.1582,8.8798,-0.5531,-0.065,0.3309,5.5,-48.58,-38.29,58.0,30.79,33.79,-27.89,325.11,-25.03,1.88,5.0,36.039,,,,NaN,,,,0 / 0,126,2020-10-20 19:36:32:417
-0.7231,4.1072,9.2405,-0.1694,4.1582,8.8798,-0.5531,-0.065,0.3309,8.69,-56.42,-36.96,58.0,30.79,33.79,-27.89,325.11,-25.03,1.88,5.0,36.039,,,,NaN,,,,0 / 0,130,2020-10-20 19:36:32:421
-0.7661,4.4733,8.7643,-0.0748,4.1817,8.8701,-0.691,0.2772,-0.1361,8.69,-56.42,-36.96,58.0,30.79,33.79,-27.89,325.11,-25.03,1.88,5.0,36.039,,,,NaN,,,,0 / 0,135,2020-10-20 19:36:32:426
-0.7661,4.4733,8.7643,-0.0748,4.1817,8.8701,-0.691,0.2772,-0.1361,8.69,-56.42,-36.96,58.0,30.79,33.79,-27.89,325.11,-25.03,1.88,5.0,36.039,,,,NaN,,,,0 / 0,140,2020-10-20 19:36:32:431
-0.7661,4.4733,8.7643,-0.0748,4.1817,8.8701,-0.691,0.2772,-0.1361,14.78,-74.51,-34.06,58.0,30.79,34.84,-29.69,325.4,-25.24,0.48,5.0,36.039,,,,NaN,,,,0 / 0,146,2020-10-20 19:36:32:437
-0.1153,4.3823,8.7763,0.1006,4.2204,8.8515,-0.2162,0.1476,-0.1054,14.78,-74.51,-34.06,58.0,30.79,34.84,-29.69,325.4,-25.24,0.48,5.0,36.039,,,,NaN,,,,0 / 0,151,2020-10-20 19:36:32:442
-0.1153,4.3823,8.7763,0.1006,4.2204,8.8515,-0.2162,0.1476,-0.1054,20.55,-136.25,-28.77,58.0,30.79,34.84,-29.69,325.4,-25.24,0.48,5.0,36.039,,,,NaN,,,,0 / 0,156,2020-10-20 19:36:32:447
-0.1153,4.3823,8.7763,0.2971,4.2541,8.8309,-0.2162,0.1476,-0.1054,20.55,-136.25,-28.77,58.0,29.74,35.59,-27.89,325.4,-25.24,0.48,5.0,36.039,,,,NaN,,,,0 / 0,161,2020-10-20 19:36:32:452
-0.1751,4.8537,8.8098,0.2971,4.2541,8.8309,-0.5899,0.5669,-0.0383,21.67,-172.27,-29.05,58.0,29.74,35.59,-27.89,325.4,-25.24,0.48,5.0,36.039,,,,NaN,,,,0 / 0,166,2020-10-20 19:36:32:457
-0.1751,4.8537,8.8098,0.2971,4.2541,8.8309,-0.5899,0.5669,-0.0383,21.67,-172.27,-29.05,58.0,29.74,35.59,-27.89,325.4,-25.24,0.48,5.0,36.039,,,,NaN,,,,0 / 0,170,2020-10-20 19:36:32:461
-0.1751,4.8537,8.8098,0.2971,4.2541,8.8309,-0.5899,0.5669,-0.0383,21.67,-172.27,-29.05,58.0,29.74,35.59,-27.89,325.4,-25.24,0.48,5.0,36.039,,,,NaN,,,,0 / 0,175,2020-10-20 19:36:32:466
-0.491,5.0786,9.2118,0.6764,4.3101,8.7827,-1.1699,0.7528,0.3969,22.83,-200.06,-29.51,64.0,29.74,35.59,-27.89,325.4,-25.24,0.48,5.0,36.039,,,,NaN,,,,0 / 0,181,2020-10-20 19:36:32:472
-0.491,5.0786,9.2118,0.6764,4.3101,8.7827,-1.1699,0.7528,0.3969,22.83,-200.06,-29.51,64.0,26.44,34.54,-28.64,326.95,-26.07,-4.4,5.0,36.039,,,,NaN,,,,0 / 0,185,2020-10-20 19:36:32:476
-0.491,5.0786,9.2118,0.6764,4.3101,8.7827,-1.1699,0.7528,0.3969,22.86,-204.05,-25.2,64.0,26.44,34.54,-28.64,326.95,-26.07,-4.4,5.0,36.039,,,,NaN,,,,0 / 0,190,2020-10-20 19:36:32:481
-0.3354,4.6695,3.5384,1.2068,4.391,8.6852,-1.5444,0.2706,-5.1624,22.86,-204.05,-25.2,64.0,26.44,34.54,-28.64,326.95,-26.07,-4.4,5.0,36.039,,,,NaN,,,,0 / 0,196,2020-10-20 19:36:32:487
-0.3354,4.6695,3.5384,1.2068,4.391,8.6852,-1.5444,0.2706,-5.1624,22.86,-204.05,-25.2,64.0,26.44,34.54,-28.64,326.95,-26.07,-4.4,5.0,36.039,,,,NaN,,,,0 / 0,200,2020-10-20 19:36:32:491
-0.3354,4.6695,3.5384,1.2068,4.391,8.6852,-1.5444,0.2706,-5.1624,-11.37,-77.24,-8.54,64.0,24.79,34.24,-30.89,326.95,-26.07,-4.4,5.0,36.039,,,,NaN,,,,0 / 0,205,2020-10-20 19:36:32:496
-0.3354,4.6695,3.5384,1.2068,4.391,8.6852,-1.5444,0.2706,-5.1624,-11.37,-77.24,-8.54,64.0,24.79,34.24,-30.89,326.95,-26.07,-4.4,5.0,36.039,,,,NaN,,,,0 / 0,210,2020-10-20 19:36:32:501
1.0285,3.4635,3.56,1.3655,4.374,8.6703,-0.3359,-0.9068,-5.1029,-34.19,-18.76,-1.75,64.0,24.79,34.24,-30.89,326.95,-26.07,-4.4,5.0,36.039,,,,NaN,,,,0 / 0,215,2020-10-20 19:36:32:506
1.0285,3.4635,3.56,1.3655,4.374,8.6703,-0.3359,-0.9068,-5.1029,-34.19,-18.76,-1.75,64.0,24.79,34.24,-30.89,326.95,-26.07,-4.4,5.0,36.039,,,,NaN,,,,0 / 0,220,2020-10-20 19:36:32:511
1.0285,3.4635,3.56,1.3655,4.374,8.6703,-0.3359,-0.9068,-5.1029,-34.19,-18.76,-1.75,64.0,24.94,35.14,-31.49,325.69,-26.49,-8.95,5.0,36.039,,,,NaN,,,,0 / 0,225,2020-10-20 19:36:32:516
0.9663,3.4396,6.1753,1.3565,4.2331,8.7413,-0.3853,-0.7783,-2.5345,-63.52,26.22,0.42,64.0,24.94,35.14,-31.49,325.69,-26.49,-8.95,5.0,36.039,,,,NaN,,,,0 / 0,231,2020-10-20 19:36:32:522
0.9663,3.4396,6.1753,1.3565,4.2331,8.7413,-0.3853,-0.7783,-2.5345,-63.52,26.22,0.42,64.0,24.94,35.14,-31.49,325.69,-26.49,-8.95,5.0,36.039,,,,NaN,,,,0 / 0,235,2020-10-20 19:36:32:526
0.9663,3.4396,6.1753,1.3565,4.2331,8.7413,-0.3853,-0.7783,-2.5345,-68.1,45.64,5.81,64.0,24.94,35.14,-31.49,325.69,-26.49,-8.95,5.0,36.039,,,,NaN,,,,0 / 0,241,2020-10-20 19:36:32:532
1.7846,3.2386,7.7019,1.2666,4.0801,8.8272,0.5238,-0.8229,-1.0849,-68.1,45.64,5.81,64.0,24.79,36.19,-30.89,325.69,-26.49,-8.95,5.0,36.039,,,,NaN,,,,0 / 0,245,2020-10-20 19:36:32:536
1.7846,3.2386,7.7019,1.2666,4.0801,8.8272,0.5238,-0.8229,-1.0849,-64.36,46.59,7.0,64.0,24.79,36.19,-30.89,325.69,-26.49,-8.95,5.0,36.039,,,,NaN,,,,0 / 0,251,2020-10-20 19:36:32:542
1.7846,3.2386,7.7019,1.2666,4.0801,8.8272,0.5238,-0.8229,-1.0849,-64.36,46.59,7.0,64.0,24.79,36.19,-30.89,325.69,-26.49,-8.95,5.0,36.039,,,,NaN,,,,0 / 0,255,2020-10-20 19:36:32:546
1.6578,3.9277,7.5823,1.1693,3.9385,8.9046,0.4947,0.01,-1.2753,-61.14,50.05,6.09,64.0,25.24,36.49,-32.09,326.89,-23.68,-7.48,5.0,36.039,,,,NaN,,,,0 / 0,262,2020-10-20 19:36:32:553
1.6578,3.9277,7.5823,1.1693,3.9385,8.9046,0.4947,0.01,-1.2753,-61.14,50.05,6.09,64.0,25.24,36.49,-32.09,326.89,-23.68,-7.48,5.0,36.039,,,,NaN,,,,0 / 0,265,2020-10-20 19:36:32:556
1.6578,3.9277,7.5823,1.1693,3.9385,8.9046,0.4947,0.01,-1.2753,-62.47,51.45,3.04,64.0,25.24,36.49,-32.09,326.89,-23.68,-7.48,5.0,36.039,,,,NaN,,,,0 / 0,270,2020-10-20 19:36:32:561
1.6578,3.9277,7.5823,1.1693,3.9385,8.9046,0.4947,0.01,-1.2753,-62.47,51.45,3.04,64.0,25.24,36.49,-32.09,326.89,-23.68,-7.48,5.0,36.039,,,,NaN,,,,0 / 0,276,2020-10-20 19:36:32:567
1.5023,3.6238,8.1231,1.0228,3.7514,9.0029,0.4855,-0.1056,-0.8272,-65.44,46.03,0.87,64.0,25.24,36.49,-32.09,326.89,-23.68,-7.48,5.0,36.039,,,,NaN,,,,0 / 0,281,2020-10-20 19:36:32:572
1.5023,3.6238,8.1231,1.0228,3.7514,9.0029,0.4855,-0.1056,-0.8272,-65.44,46.03,0.87,64.0,24.49,38.29,-31.34,326.89,-23.68,-7.48,5.0,36.039,,,,NaN,,,,0 / 0,286,2020-10-20 19:36:32:577
1.5023,3.6238,8.1231,1.0228,3.7514,9.0029,0.4855,-0.1056,-0.8272,-65.44,46.03,0.87,64.0,24.49,38.29,-31.34,326.89,-23.68,-7.48,5.0,36.039,,,,NaN,,,,0 / 0,291,2020-10-20 19:36:32:582
0.672,3.0806,7.867,0.9404,3.5983,9.0741,-0.2624,-0.4943,-1.1483,-68.35,27.65,3.6,64.0,24.49,38.29,-31.34,326.89,-23.68,-7.48,5.0,36.039,,,,NaN,,,,0 / 0,295,2020-10-20 19:36:32:586
0.672,3.0806,7.867,0.9404,3.5983,9.0741,-0.2624,-0.4943,-1.1483,-68.35,27.65,3.6,64.0,24.49,38.29,-31.34,326.89,-23.68,-7.48,5.0,36.039,,,,NaN,,,,0 / 0,300,2020-10-20 19:36:32:591
0.672,3.0806,7.867,0.9404,3.5983,9.0741,-0.2624,-0.4943,-1.1483,-69.47,21.7,11.76,68.0,26.14,37.39,-29.99,326.88,-21.53,-5.92,5.0,36.039,,,,NaN,,,,0 / 0,306,2020-10-20 19:36:32:597
1.0285,2.6763,9.2022,0.889,3.3779,9.1635,0.1458,-0.6778,0.1036,-69.47,21.7,11.76,68.0,26.14,37.39,-29.99,326.88,-21.53,-5.92,5.0,36.039,,,,NaN,,,,0 / 0,311,2020-10-20 19:36:32:602
1.0285,2.6763,9.2022,0.889,3.3779,9.1635,0.1458,-0.6778,0.1036,-62.85,10.5,17.39,68.0,26.14,37.39,-29.99,326.88,-21.53,-5.92,5.0,53.087,,,,NaN,,,,0 / 0,315,2020-10-20 19:36:32:606
1.0285,2.6763,9.2022,0.889,3.3779,9.1635,0.1458,-0.6778,0.1036,-62.85,10.5,17.39,68.0,26.14,37.39,-29.99,326.88,-21.53,-5.92,5.0,53.087,,,,NaN,,,,0 / 0,320,2020-10-20 19:36:32:611
1.0285,2.6763,9.2022,0.889,3.3779,9.1635,0.1458,-0.6778,0.1036,-62.85,10.5,17.39,68.0,23.14,39.64,-31.49,326.88,-21.53,-5.92,5.0,53.087,,,,NaN,,,,0 / 0,326,2020-10-20 19:36:32:617
0.4949,4.234,8.6686,0.911,3.2388,9.2115,-0.4096,1.0184,-0.477,-54.38,-14.42,24.43,68.0,23.14,39.64,-31.49,326.88,-21.53,-5.92,5.0,53.087,,,,NaN,,,,0 / 0,330,2020-10-20 19:36:32:621
0.4949,4.234,8.6686,0.911,3.2388,9.2115,-0.4096,1.0184,-0.477,-54.38,-14.42,24.43,68.0,23.14,39.64,-31.49,326.88,-21.53,-5.92,5.0,53.087,,,,NaN,,,,0 / 0,335,2020-10-20 19:36:32:626
0.4949,4.234,8.6686,0.911,3.2388,9.2115,-0.4096,1.0184,-0.477,-47.73,-53.58,45.67,68.0,23.14,39.64,-31.49,326.88,-21.53,-5.92,5.0,53.087,,,,NaN,,,,0 / 0,342,2020-10-20 19:36:32:633
1.8636,2.7193,7.5153,1.1076,3.0753,9.2459,0.7646,-0.332,-1.6582,-47.73,-53.58,45.67,68.0,26.44,39.19,-31.79,328.02,-19.28,-5.65,5.0,53.087,,,,NaN,,,,0 / 0,346,2020-10-20 19:36:32:637
1.8636,2.7193,7.5153,1.1076,3.0753,9.2459,0.7646,-0.332,-1.6582,-45.0,-74.41,43.05,68.0,26.44,39.19,-31.79,328.02,-19.28,-5.65,5.0,53.087,,,,NaN,,,,0 / 0,350,2020-10-20 19:36:32:641
1.8636,2.7193,7.5153,1.1076,3.0753,9.2459,0.7646,-0.332,-1.6582,-45.0,-74.41,43.05,68.0,26.44,39.19,-31.79,328.02,-19.28,-5.65,5.0,53.087,,,,NaN,,,,0 / 0,356,2020-10-20 19:36:32:647
2.5336,2.5614,6.2591,1.33,2.9654,9.2524,1.2158,-0.3768,-2.9084,-40.07,-82.81,30.34,68.0,26.44,39.19,-31.79,328.02,-19.28,-5.65,5.0,53.087,,,,NaN,,,,0 / 0,360,2020-10-20 19:36:32:651
2.5336,2.5614,6.2591,1.33,2.9654,9.2524,1.2158,-0.3768,-2.9084,-40.07,-82.81,30.34,68.0,23.89,41.44,-32.99,328.02,-19.28,-5.65,5.0,53.087,,,,NaN,,,,0 / 0,365,2020-10-20 19:36:32:656
2.5336,2.5614,6.2591,1.33,2.9654,9.2524,1.2158,-0.3768,-2.9084,-40.07,-82.81,30.34,68.0,23.89,41.44,-32.99,328.02,-19.28,-5.65,5.0,53.087,,,,NaN,,,,0 / 0,371,2020-10-20 19:36:32:662
2.5336,2.5614,6.2591,1.33,2.9654,9.2524,1.2158,-0.3768,-2.9084,-26.91,-83.05,6.3,68.0,23.89,41.44,-32.99,328.02,-19.28,-5.65,5.0,53.087,,,,NaN,,,,0 / 0,376,2020-10-20 19:36:32:667
2.4427,2.6428,5.9623,1.612,2.8739,9.2365,0.8488,-0.1987,-3.1698,-26.91,-83.05,6.3,68.0,23.89,41.44,-32.99,328.02,-19.28,-5.65,5.0,53.087,,,,NaN,,,,0 / 0,381,2020-10-20 19:36:32:672
2.4427,2.6428,5.9623,1.612,2.8739,9.2365,0.8488,-0.1987,-3.1698,-19.8,-93.73,0.28,68.0,23.74,41.29,-32.39,328.32,-17.04,-9.9,5.0,53.087,,,,NaN,,,,0 / 0,385,2020-10-20 19:36:32:676
2.4427,2.6428,5.9623,1.612,2.8739,9.2365,0.8488,-0.1987,-3.1698,-19.8,-93.73,0.28,68.0,23.74,41.29,-32.39,328.32,-17.04,-9.9,5.0,53.087,,,,NaN,,,,0 / 0,391,2020-10-20 19:36:32:682
2.0359,2.0182,5.4311,1.8551,2.8369,9.2022,0.2052,-0.7813,-3.6501,-12.84,-107.98,3.99,68.0,23.74,41.29,-32.39,328.32,-17.04,-9.9,5.0,53.087,,,,NaN,,,,0 / 0,395,2020-10-20 19:36:32:686
2.0359,2.0182,5.4311,1.8551,2.8369,9.2022,0.2052,-0.7813,-3.6501,-12.84,-107.98,3.99,68.0,23.74,41.29,-32.39,328.32,-17.04,-9.9,5.0,53.087,,,,NaN,,,,0 / 0,400,2020-10-20 19:36:32:691
2.0359,2.0182,5.4311,1.8551,2.8369,9.2022,0.2052,-0.7813,-3.6501,-12.84,-107.98,3.99,68.0,21.49,41.29,-34.94,328.32,-17.04,-9.9,5.0,53.087,,,,NaN,,,,0 / 0,406,2020-10-20 19:36:32:697
2.39,1.3076,4.3807,2.155,2.8059,9.1462,0.2688,-1.4543,-4.6219,-8.99,-125.86,22.22,68.0,21.49,41.29,-34.94,328.32,-17.04,-9.9,5.0,53.087,,,,NaN,,,,0 / 0,410,2020-10-20 19:36:32:701
2.39,1.3076,4.3807,2.155,2.8059,9.1462,0.2688,-1.4543,-4.6219,-8.99,-125.86,22.22,68.0,21.49,41.29,-34.94,328.32,-17.04,-9.9,5.0,53.087,,,,NaN,,,,0 / 0,415,2020-10-20 19:36:32:706
2.39,1.3076,4.3807,2.155,2.8059,9.1462,0.2688,-1.4543,-4.6219,1.9,-134.12,22.71,68.0,21.49,41.29,-34.94,328.32,-17.04,-9.9,5.0,53.087,,,,NaN,,,,0 / 0,420,2020-10-20 19:36:32:711
2.39,1.3076,4.3807,2.155,2.8059,9.1462,0.2688,-1.4543,-4.6219,1.9,-134.12,22.71,67.0,21.49,41.29,-34.94,328.32,-17.04,-9.9,5.0,53.087,,,,NaN,,,,0 / 0,426,2020-10-20 19:36:32:717
3.0528,2.0996,3.1053,2.5997,2.7885,9.0353,0.5031,-0.6353,-5.7563,4.0,-149.97,25.16,67.0,18.49,40.69,-34.34,331.98,-16.63,-13.26,5.0,53.087,,,,NaN,,,,0 / 0,430,2020-10-20 19:36:32:721
3.0528,2.0996,3.1053,2.5997,2.7885,9.0353,0.5031,-0.6353,-5.7563,4.0,-149.97,25.16,67.0,18.49,40.69,-34.34,331.98,-16.63,-13.26,5.0,53.087,,,,NaN,,,,0 / 0,435,2020-10-20 19:36:32:726
3.0528,2.0996,3.1053,2.5997,2.7885,9.0353,0.5031,-0.6353,-5.7563,4.0,-149.97,25.16,67.0,18.49,40.69,-34.34,331.98,-16.63,-13.26,5.0,53.087,,,,NaN,,,,0 / 0,441,2020-10-20 19:36:32:732
3.2275,1.1496,0.021,2.9872,2.7679,8.9211,0.3099,-1.5538,-8.6922,-10.67,-160.02,31.01,67.0,16.09,40.09,-35.24,331.98,-16.63,-13.26,5.0,53.087,,,,NaN,,,,0 / 0,445,2020-10-20 19:36:32:736
3.2275,1.1496,0.021,2.9872,2.7679,8.9211,0.3099,-1.5538,-8.6922,-10.67,-160.02,31.01,67.0,16.09,40.09,-35.24,331.98,-16.63,-13.26,5.0,53.087,,,,NaN,,,,0 / 0,450,2020-10-20 19:36:32:741
3.2275,1.1496,0.021,2.9872,2.7679,8.9211,0.3099,-1.5538,-8.6922,-50.64,-156.2,39.51,67.0,16.09,40.09,-35.24,331.98,-16.63,-13.26,5.0,53.087,,,,NaN,,,,0 / 0,456,2020-10-20 19:36:32:747
4.0937,0.037,-0.2399,3.5184,2.5968,8.7777,0.6798,-2.4827,-8.7569,-50.64,-156.2,39.51,67.0,16.09,40.09,-35.24,331.98,-16.63,-13.26,5.0,53.087,,,,NaN,,,,0 / 0,460,2020-10-20 19:36:32:751
4.0937,0.037,-0.2399,3.5184,2.5968,8.7777,0.6798,-2.4827,-8.7569,-50.64,-156.2,39.51,67.0,12.64,41.74,-35.54,332.09,-15.35,-21.84,5.0,53.087,,,,NaN,,,,0 / 0,465,2020-10-20 19:36:32:756
4.0937,0.037,-0.2399,3.5184,2.5968,8.7777,0.6798,-2.4827,-8.7569,-83.22,-158.16,42.45,67.0,12.64,41.74,-35.54,332.09,-15.35,-21.84,5.0,53.087,,,,NaN,,,,0 / 0,471,2020-10-20 19:36:32:762
4.0937,0.037,-0.2399,3.5184,2.5968,8.7777,0.6798,-2.4827,-8.7569,-83.22,-158.16,42.45,67.0,12.64,41.74,-35.54,332.09,-15.35,-21.84,5.0,53.087,,,,NaN,,,,0 / 0,475,2020-10-20 19:36:32:766
5.9099,-0.1138,2.1195,3.9201,2.3703,8.6709,2.1199,-2.4053,-6.2634,-93.06,-174.62,36.82,67.0,12.64,41.74,-35.54,332.09,-15.35,-21.84,5.0,53.087,,,,NaN,,,,0 / 0,480,2020-10-20 19:36:32:771
5.9099,-0.1138,2.1195,3.9201,2.3703,8.6709,2.1199,-2.4053,-6.2634,-93.06,-174.62,36.82,67.0,10.69,42.94,-36.59,332.09,-15.35,-21.84,5.0,53.087,,,,NaN,,,,0 / 0,485,2020-10-20 19:36:32:776
5.9099,-0.1138,2.1195,4.3608,2.123,8.5233,2.1199,-2.4053,-6.2634,-93.06,-174.62,36.82,67.0,10.69,42.94,-36.59,332.09,-15.35,-21.84,5.0,53.087,,,,NaN,,,,0 / 0,491,2020-10-20 19:36:32:782
5.917,-0.7407,4.8305,4.3608,2.123,8.5233,1.5657,-2.7115,-3.3306,-93.65,-199.61,22.22,67.0,10.69,42.94,-36.59,332.09,-15.35,-21.84,5.0,53.087,,,,NaN,,,,0 / 0,495,2020-10-20 19:36:32:786
5.917,-0.7407,4.8305,4.3608,2.123,8.5233,1.5657,-2.7115,-3.3306,-93.65,-199.61,22.22,67.0,10.69,42.94,-36.59,332.09,-15.35,-21.84,5.0,53.087,,,,NaN,,,,0 / 0,500,2020-10-20 19:36:32:791
5.917,-0.7407,4.8305,4.8225,1.891,8.327,1.5657,-2.7115,-3.3306,-93.65,-199.61,22.22,67.0,7.09,44.29,-36.59,333.19,-11.12,-30.08,5.0,53.087,,,,NaN,,,,0 / 0,506,2020-10-20 19:36:32:797
3.2778,-1.8677,9.597,5.259,1.6955,8.1018,-1.515,-3.6193,1.6441,-78.85,-213.75,26.77,67.0,7.09,44.29,-36.59,333.19,-11.12,-30.08,5.0,53.087,,,,NaN,,,,0 / 0,518,2020-10-20 19:36:32:809
3.2778,-1.8677,9.597,5.259,1.6955,8.1018,-1.515,-3.6193,1.6441,-78.85,-213.75,26.77,67.0,7.09,44.29,-36.59,333.19,-11.12,-30.08,5.0,53.087,,,,NaN,,,,0 / 0,518,2020-10-20 19:36:32:809
3.2778,-1.8677,9.597,5.259,1.6955,8.1018,-1.515,-3.6193,1.6441,-78.85,-213.75,26.77,67.0,7.09,44.29,-36.59,333.19,-11.12,-30.08,5.0,53.087,,,,NaN,,,,0 / 0,521,2020-10-20 19:36:32:812
3.9812,-2.6908,7.2234,5.259,1.6955,8.1018,-1.2129,-4.2707,-0.5036,-36.29,-187.71,50.61,67.0,7.09,44.29,-36.59,333.19,-11.12,-30.08,5.0,53.087,,,,NaN,,,,0 / 0,525,2020-10-20 19:36:32:816
3.9812,-2.6908,7.2234,5.259,1.6955,8.1018,-1.2129,-4.2707,-0.5036,-36.29,-187.71,50.61,67.0,2.74,46.84,-35.54,333.19,-11.12,-30.08,5.0,53.087,,,,NaN,,,,0 / 0,531,2020-10-20 19:36:32:822
3.9812,-2.6908,7.2234,5.6442,1.5275,7.8728,-1.2238,-4.0378,-3.0483,-36.29,-187.71,50.61,67.0,2.74,46.84,-35.54,333.19,-11.12,-30.08,5.0,53.087,,,,NaN,,,,0 / 0,536,2020-10-20 19:36:32:827
4.3138,-2.631,4.4501,5.6442,1.5275,7.8728,-1.2238,-4.0378,-3.0483,-33.45,-158.62,73.6,67.0,2.74,46.84,-35.54,333.19,-11.12,-30.08,5.0,53.087,,,,NaN,,,,0 / 0,541,2020-10-20 19:36:32:832
4.3138,-2.631,4.4501,5.8684,1.3925,7.7326,-1.2238,-4.0378,-3.0483,-41.54,-142.69,87.53,41.0,0.19,47.59,-34.79,337.65,-8.16,-37.2,5.0,53.087,,,,NaN,,,,0 / 0,546,2020-10-20 19:36:32:837
5.3882,-2.5066,4.5027,5.8684,1.3925,7.7326,-0.4423,-3.6893,-2.789,-41.54,-142.69,87.53,41.0,0.19,47.59,-34.79,337.65,-8.16,-37.2,5.0,53.087,,,,NaN,,,,0 / 0,551,2020-10-20 19:36:32:842
5.3882,-2.5066,4.5027,5.8684,1.3925,7.7326,-0.4423,-3.6893,-2.789,-41.54,-142.69,87.53,41.0,0.19,47.59,-34.79,337.65,-8.16,-37.2,5.0,53.087,,,,NaN,,,,0 / 0,555,2020-10-20 19:36:32:846
5.3882,-2.5066,4.5027,6.1742,1.1446,7.5325,-0.4423,-3.6893,-2.789,-50.18,-134.29,97.58,41.0,0.19,47.59,-34.79,337.65,-8.16,-37.2,5.0,53.087,,,,NaN,,,,0 / 0,560,2020-10-20 19:36:32:851
6.2329,-2.7794,3.7274,6.1742,1.1446,7.5325,0.1462,-3.6889,-3.3729,-50.18,-134.29,97.58,41.0,-3.86,47.59,-34.79,337.65,-8.16,-37.2,5.0,53.087,,,,NaN,,,,0 / 0,565,2020-10-20 19:36:32:856
6.2329,-2.7794,3.7274,6.1742,1.1446,7.5325,0.1462,-3.6889,-3.3729,-72.06,-105.94,101.53,41.0,-3.86,47.59,-34.79,337.65,-8.16,-37.2,5.0,53.087,,,,NaN,,,,0 / 0,571,2020-10-20 19:36:32:862
6.2329,-2.7794,3.7274,6.1742,1.1446,7.5325,0.1462,-3.6889,-3.3729,-72.06,-105.94,101.53,41.0,-3.86,47.59,-34.79,337.65,-8.16,-37.2,5.0,53.087,,,,NaN,,,,0 / 0,575,2020-10-20 19:36:32:866
6.2042,-3.5235,5.0627,6.5,0.7308,7.3066,-0.0189,-4.2232,-1.9326,-72.06,-105.94,101.53,41.0,-3.86,47.59,-34.79,337.65,-8.16,-37.2,5.0,53.087,,,,NaN,,,,0 / 0,580,2020-10-20 19:36:32:871
6.2042,-3.5235,5.0627,6.5,0.7308,7.3066,-0.0189,-4.2232,-1.9326,-81.65,-97.61,105.91,41.0,-5.21,49.69,-34.94,339.44,-4.27,-41.66,5.0,53.087,,,,NaN,,,,0 / 0,586,2020-10-20 19:36:32:877
6.2042,-3.5235,5.0627,6.5,0.7308,7.3066,-0.0189,-4.2232,-1.9326,-81.65,-97.61,105.91,41.0,-5.21,49.69,-34.94,339.44,-4.27,-41.66,5.0,53.087,,,,NaN,,,,0 / 0,590,2020-10-20 19:36:32:881
6.0175,-4.1505,6.7616,6.6953,0.3727,7.1557,-0.3905,-4.5071,-0.0872,-85.04,-95.93,111.58,41.0,-5.21,49.69,-34.94,339.44,-4.27,-41.66,5.0,53.087,,,,NaN,,,,0 / 0,595,2020-10-20 19:36:32:886
6.0175,-4.1505,6.7616,6.6953,0.3727,7.1557,-0.3905,-4.5071,-0.0872,-85.04,-95.93,111.58,41.0,-5.21,49.69,-34.94,339.44,-4.27,-41.66,5.0,53.087,,,,NaN,,,,0 / 0,601,2020-10-20 19:36:32:892
6.0175,-4.1505,6.7616,6.6953,0.3727,7.1557,-0.3905,-4.5071,-0.0872,-85.11,-75.85,131.95,41.0,-5.96,51.79,-33.44,339.44,-4.27,-41.66,5.0,53.087,,,,NaN,,,,0 / 0,605,2020-10-20 19:36:32:896
5.7902,-5.3708,8.4246,6.8828,-0.1611,6.9836,-0.7974,-5.2167,1.7404,-85.11,-75.85,131.95,41.0,-5.96,51.79,-33.44,339.44,-4.27,-41.66,5.0,53.087,,,,NaN,,,,0 / 0,611,2020-10-20 19:36:32:902
5.7902,-5.3708,8.4246,6.8828,-0.1611,6.9836,-0.7974,-5.2167,1.7404,-85.11,-75.85,131.95,41.0,-5.96,51.79,-33.44,339.44,-4.27,-41.66,5.0,53.087,,,,NaN,,,,0 / 0,616,2020-10-20 19:36:32:907
5.7902,-5.3708,8.4246,6.8828,-0.1611,6.9836,-0.7974,-5.2167,1.7404,-79.2,-54.88,144.41,41.0,-5.96,51.79,-33.44,339.44,-4.27,-41.66,5.0,53.087,,,,NaN,,,,0 / 0,621,2020-10-20 19:36:32:912
5.5892,-6.1078,9.0156,6.9394,-0.5835,6.9047,-1.0569,-5.5489,2.4026,-67.96,-37.66,157.01,41.0,-9.71,53.89,-34.79,341.93,0.94,-44.58,5.0,53.087,,,,NaN,,,,0 / 0,626,2020-10-20 19:36:32:917
5.5892,-6.1078,9.0156,6.9394,-0.5835,6.9047,-1.0569,-5.5489,2.4026,-67.96,-37.66,157.01,41.0,-9.71,53.89,-34.79,341.93,0.94,-44.58,5.0,53.087,,,,NaN,,,,0 / 0,631,2020-10-20 19:36:32:922
5.5892,-6.1078,9.0156,6.9394,-0.5835,6.9047,-1.0569,-5.5489,2.4026,-67.96,-37.66,157.01,41.0,-9.71,53.89,-34.79,341.93,0.94,-44.58,5.0,53.087,,,,NaN,,,,0 / 0,635,2020-10-20 19:36:32:926
6.7354,-5.6245,6.2686,6.9446,-1.0176,6.8489,0.0818,-4.6495,-0.2933,-63.31,-19.88,174.96,41.0,-9.71,53.89,-34.79,341.93,0.94,-44.58,5.0,53.087,,,,NaN,,,,0 / 0,640,2020-10-20 19:36:32:931
6.7354,-5.6245,6.2686,6.9446,-1.0176,6.8489,0.0818,-4.6495,-0.2933,-63.31,-19.88,174.96,41.0,-9.41,57.19,-32.54,341.93,0.94,-44.58,5.0,37.606,,,,NaN,,,,0 / 0,646,2020-10-20 19:36:32:937
6.7354,-5.6245,6.2686,6.9446,-1.0176,6.8489,0.0818,-4.6495,-0.2933,-77.76,-11.93,179.76,41.0,-9.41,57.19,-32.54,341.93,0.94,-44.58,5.0,37.606,,,,NaN,,,,0 / 0,650,2020-10-20 19:36:32:941
8.7789,-5.1004,4.1582,6.9173,-1.4882,6.7902,2.1503,-3.6743,-2.3486,-77.76,-11.93,179.76,41.0,-9.41,57.19,-32.54,341.93,0.94,-44.58,5.0,37.606,,,,NaN,,,,0 / 0,655,2020-10-20 19:36:32:946
8.7789,-5.1004,4.1582,6.9173,-1.4882,6.7902,2.1503,-3.6743,-2.3486,-102.09,-16.17,177.48,41.0,-9.41,57.19,-32.54,341.93,0.94,-44.58,5.0,37.606,,,,NaN,,,,0 / 0,661,2020-10-20 19:36:32:952
8.7789,-5.1004,4.1582,6.9173,-1.4882,6.7902,2.1503,-3.6743,-2.3486,-102.09,-16.17,177.48,11.0,-9.56,57.34,-33.44,342.27,8.73,-45.53,5.0,37.606,,,,NaN,,,,0 / 0,666,2020-10-20 19:36:32:957
9.9753,-5.0023,4.8784,6.8854,-2.0079,6.688,3.3727,-3.0769,-1.5349,-144.4,-27.02,166.46,11.0,-9.56,57.34,-33.44,342.27,8.73,-45.53,5.0,37.606,,,,NaN,,,,0 / 0,671,2020-10-20 19:36:32:962
9.9753,-5.0023,4.8784,6.8854,-2.0079,6.688,3.3727,-3.0769,-1.5349,-144.4,-27.02,166.46,11.0,-9.56,57.34,-33.44,342.27,8.73,-45.53,5.0,37.606,,,,NaN,,,,0 / 0,675,2020-10-20 19:36:32:966
9.8915,-5.7584,7.2138,6.8854,-2.0079,6.688,3.3046,-3.4777,0.8851,-159.42,-35.31,157.5,11.0,-9.56,57.34,-33.44,342.27,8.73,-45.53,5.0,37.606,,,,NaN,,,,0 / 0,681,2020-10-20 19:36:32:972
9.8915,-5.7584,7.2138,6.8474,-2.5593,6.5371,3.3046,-3.4777,0.8851,-159.42,-35.31,157.5,11.0,-9.71,61.84,-32.54,342.27,8.73,-45.53,5.0,37.606,,,,NaN,,,,0 / 0,685,2020-10-20 19:36:32:976
9.8915,-5.7584,7.2138,6.8474,-2.5593,6.5371,3.3046,-3.4777,0.8851,-159.42,-35.31,157.5,11.0,-9.71,61.84,-32.54,342.27,8.73,-45.53,5.0,37.606,,,,NaN,,,,0 / 0,690,2020-10-20 19:36:32:981
7.6183,-7.3521,9.4152,6.8218,-2.9271,6.4083,1.0545,-4.5357,3.2492,-159.87,-52.92,156.83,11.0,-9.71,61.84,-32.54,342.27,8.73,-45.53,5.0,37.606,,,,NaN,,,,0 / 0,695,2020-10-20 19:36:32:986
7.6183,-7.3521,9.4152,6.8218,-2.9271,6.4083,1.0545,-4.5357,3.2492,-159.87,-52.92,156.83,11.0,-9.71,61.84,-32.54,342.27,8.73,-45.53,5.0,37.606,,,,NaN,,,,0 / 0,700,2020-10-20 19:36:32:991
7.6183,-7.3521,9.4152,6.8218,-2.9271,6.4083,1.0545,-4.5357,3.2492,-159.87,-52.92,156.83,11.0,-9.71,61.84,-32.54,342.27,8.73,-45.53,5.0,37.606,,,,NaN,,,,0 / 0,705,2020-10-20 19:36:32:996
7.1254,-8.436,10.3532,6.8071,-3.4707,6.1472,0.4989,-5.4564,5.0261,-152.66,-83.75,164.53,11.0,-10.61,65.74,-33.44,342.95,17.37,-46.79,5.0,37.606,,,,NaN,,,,0 / 0,710,2020-10-20 19:36:33:001
7.1254,-8.436,10.3532,6.8071,-3.4707,6.1472,0.4989,-5.4564,5.0261,-152.66,-83.75,164.53,11.0,-10.61,65.74,-33.44,342.95,17.37,-46.79,5.0,37.606,,,,NaN,,,,0 / 0,715,2020-10-20 19:36:33:006
7.0847,-9.0605,11.4826,6.8158,-3.8184,5.9275,0.8476,-5.5439,5.8576,-136.0,-118.4,174.19,11.0,-10.61,65.74,-33.44,342.95,17.37,-46.79,5.0,37.606,,,,NaN,,,,0 / 0,721,2020-10-20 19:36:33:012
7.0847,-9.0605,11.4826,6.8158,-3.8184,5.9275,0.8476,-5.5439,5.8576,-136.0,-118.4,174.19,11.0,-10.61,65.74,-33.44,342.95,17.37,-46.79,5.0,37.606,,,,NaN,,,,0 / 0,725,2020-10-20 19:36:33:016
7.0847,-9.0605,11.4826,6.8158,-3.8184,5.9275,0.8476,-5.5439,5.8576,-136.0,-118.4,174.19,11.0,-11.96,67.69,-31.79,342.95,17.37,-46.79,5.0,37.606,,,,NaN,,,,0 / 0,730,2020-10-20 19:36:33:021
9.2598,-8.2733,9.0826,6.8703,-4.434,5.4138,2.5895,-3.9684,3.8264,-68.91,-192.92,187.95,11.0,-11.96,67.69,-31.79,342.95,17.37,-46.79,5.0,37.606,,,,NaN,,,,0 / 0,735,2020-10-20 19:36:33:026
9.2598,-8.2733,9.0826,6.8703,-4.434,5.4138,2.5895,-3.9684,3.8264,-68.91,-192.92,187.95,11.0,-11.96,67.69,-31.79,342.95,17.37,-46.79,5.0,37.606,,,,NaN,,,,0 / 0,740,2020-10-20 19:36:33:031
9.2598,-8.2733,9.0826,6.8703,-4.434,5.4138,2.5895,-3.9684,3.8264,-68.91,-192.92,187.95,11.0,-13.91,70.84,-29.09,344.31,26.88,-51.76,5.0,37.606,,,,NaN,,,,0 / 0,745,2020-10-20 19:36:33:036
9.6762,-7.5698,5.4838,6.9101,-4.7048,5.1269,2.9328,-2.8658,0.6405,-48.29,-219.73,184.17,11.0,-13.91,70.84,-29.09,344.31,26.88,-51.76,5.0,37.606,,,,NaN,,,,0 / 0,751,2020-10-20 19:36:33:042
9.6762,-7.5698,5.4838,6.9101,-4.7048,5.1269,2.9328,-2.8658,0.6405,-48.29,-219.73,184.17,11.0,-13.91,70.84,-29.09,344.31,26.88,-51.76,5.0,37.606,,,,NaN,,,,0 / 0,755,2020-10-20 19:36:33:046
9.6762,-7.5698,5.4838,6.9637,-5.0904,4.6653,2.9328,-2.8658,0.6405,-48.64,-225.89,180.84,11.0,-13.91,70.84,-29.09,344.31,26.88,-51.76,5.0,37.606,,,,NaN,,,,0 / 0,760,2020-10-20 19:36:33:051
10.0423,-7.8211,3.2226,6.9637,-5.0904,4.6653,3.2436,-2.7358,-1.1695,-48.64,-225.89,180.84,11.0,-15.26,72.94,-28.94,344.31,26.88,-51.76,5.0,37.606,,,,NaN,,,,0 / 0,766,2020-10-20 19:36:33:057
10.0423,-7.8211,3.2226,6.9637,-5.0904,4.6653,3.2436,-2.7358,-1.1695,-48.64,-225.89,180.84,11.0,-15.26,72.94,-28.94,344.31,26.88,-51.76,5.0,37.606,,,,NaN,,,,0 / 0,770,2020-10-20 19:36:33:061
10.0423,-7.8211,3.2226,6.9637,-5.0904,4.6653,3.2436,-2.7358,-1.1695,-48.64,-225.89,180.84,11.0,-15.26,72.94,-28.94,344.31,26.88,-51.76,5.0,37.606,,,,NaN,,,,0 / 0,776,2020-10-20 19:36:33:067
9.8054,-8.2087,2.4904,6.9825,-5.4735,4.178,2.9921,-2.8679,-1.5863,-60.89,-224.25,176.96,11.0,-15.26,72.94,-28.94,344.31,26.88,-51.76,5.0,37.606,,,,NaN,,,,0 / 0,780,2020-10-20 19:36:33:071
9.8054,-8.2087,2.4904,6.9825,-5.4735,4.178,2.9921,-2.8679,-1.5863,-60.89,-224.25,176.96,6.0,-17.36,75.49,-25.64,343.76,33.93,-59.11,5.0,37.606,,,,NaN,,,,0 / 0,785,2020-10-20 19:36:33:076
9.913,-8.7782,2.0525,6.9542,-5.8626,3.6661,2.9921,-2.8679,-1.5863,-77.17,-223.54,177.9,6.0,-17.36,75.49,-25.64,343.76,33.93,-59.11,5.0,37.606,,,,NaN,,,,0 / 0,791,2020-10-20 19:36:33:082
9.913,-8.7782,2.0525,6.9542,-5.8626,3.6661,3.0543,-3.2341,-1.5802,-77.17,-223.54,177.9,6.0,-17.36,75.49,-25.64,343.76,33.93,-59.11,5.0,37.606,,,,NaN,,,,0 / 0,795,2020-10-20 19:36:33:086
9.913,-8.7782,2.0525,6.9542,-5.8626,3.6661,3.0543,-3.2341,-1.5802,-88.3,-219.21,180.11,6.0,-17.36,75.49,-25.64,343.76,33.93,-59.11,5.0,37.606,,,,NaN,,,,0 / 0,800,2020-10-20 19:36:33:091
10.0159,-9.9124,1.4662,6.8685,-6.2598,3.1318,3.0543,-3.2341,-1.5802,-88.3,-219.21,180.11,6.0,-19.91,79.09,-23.54,343.76,33.93,-59.11,5.0,37.606,,,,NaN,,,,0 / 0,806,2020-10-20 19:36:33:097
10.0159,-9.9124,1.4662,6.8685,-6.2598,3.1318,3.0543,-3.2341,-1.5802,-88.3,-219.21,180.11,6.0,-19.91,79.09,-23.54,343.76,33.93,-59.11,5.0,37.606,,,,NaN,,,,0 / 0,810,2020-10-20 19:36:33:101
10.0159,-9.9124,1.4662,6.8685,-6.2598,3.1318,3.5512,-3.9509,-1.3055,-100.23,-212.77,182.73,6.0,-19.91,79.09,-23.54,343.76,33.93,-59.11,5.0,37.606,,,,NaN,,,,0 / 0,816,2020-10-20 19:36:33:107
10.7888,-10.4675,2.3611,6.7229,-6.6545,2.5866,3.5512,-3.9509,-1.3055,-100.23,-212.77,182.73,6.0,-19.91,79.09,-23.54,343.76,33.93,-59.11,5.0,37.606,,,,NaN,,,,0 / 0,820,2020-10-20 19:36:33:111
10.7888,-10.4675,2.3611,6.7229,-6.6545,2.5866,3.5512,-3.9509,-1.3055,-100.23,-212.77,182.73,6.0,-19.91,79.09,-23.54,343.76,33.93,-59.11,5.0,37.606,,,,NaN,,,,0 / 0,826,2020-10-20 19:36:33:117
10.7888,-10.4675,2.3611,6.7229,-6.6545,2.5866,4.4229,-3.8442,0.4789,-112.66,-203.25,181.75,6.0,-20.81,80.74,-21.44,343.64,42.73,-68.96,5.0,37.606,,,,NaN,,,,0 / 0,831,2020-10-20 19:36:33:122
11.2171,-10.5824,3.6461,6.5304,-7.0234,2.0487,4.4229,-3.8442,0.4789,-112.66,-203.25,181.75,6.0,-20.81,80.74,-21.44,343.64,42.73,-68.96,5.0,37.606,,,,NaN,,,,0 / 0,835,2020-10-20 19:36:33:126
11.2171,-10.5824,3.6461,6.5304,-7.0234,2.0487,4.4229,-3.8442,0.4789,-112.66,-203.25,181.75,6.0,-20.81,80.74,-21.44,343.64,42.73,-68.96,5.0,37.606,,,,NaN,,,,0 / 0,841,2020-10-20 19:36:33:132
11.4181,-10.513,3.9978,6.3827,-7.2483,1.701,5.1208,-3.3616,2.3196,-105.38,-203.28,176.96,6.0,-20.81,80.74,-17.69,343.64,42.73,-68.96,5.0,37.606,,,,NaN,,,,0 / 0,847,2020-10-20 19:36:33:138
11.4181,-10.513,3.9978,6.3827,-7.2483,1.701,5.1208,-3.3616,2.3196,-105.38,-203.28,176.96,6.0,-22.16,82.69,-17.69,343.64,42.73,-68.96,5.0,37.606,,,,NaN,,,,0 / 0,851,2020-10-20 19:36:33:142
11.4181,-10.513,3.9978,6.3827,-7.2483,1.701,5.1208,-3.3616,2.3196,-105.38,-203.28,176.96,6.0,-22.16,82.69,-17.69,343.64,42.73,-68.96,5.0,37.606,,,,NaN,,,,0 / 0,856,2020-10-20 19:36:33:147
11.4181,-10.513,3.9978,6.3827,-7.2483,1.701,5.1208,-3.3616,2.3196,-105.38,-203.28,176.96,6.0,-22.16,82.69,-17.69,343.64,42.73,-68.96,5.0,37.606,,,,NaN,,,,0 / 0,860,2020-10-20 19:36:33:151
12.648,-10.19,3.6317,6.1453,-7.547,1.2036,6.5659,-2.7205,2.4405,-95.86,-198.8,167.58,6.0,-22.16,82.69,-17.69,343.64,42.73,-68.96,5.0,37.606,,,,NaN,,,,0 / 0,865,2020-10-20 19:36:33:156
12.648,-10.19,3.6317,6.1453,-7.547,1.2036,6.5659,-2.7205,2.4405,-95.86,-198.8,167.58,6.0,-23.66,87.79,-15.14,344.25,50.32,-78.92,5.0,37.606,,,,NaN,,,,0 / 0,870,2020-10-20 19:36:33:161
12.648,-10.19,3.6317,6.1453,-7.547,1.2036,6.5659,-2.7205,2.4405,-95.86,-198.8,167.58,6.0,-23.66,87.79,-15.14,344.25,50.32,-78.92,5.0,37.606,,,,NaN,,,,0 / 0,876,2020-10-20 19:36:33:167
13.0931,-9.8789,3.469,5.819,-7.8698,0.6125,7.3106,-2.0584,2.8603,-90.82,-166.29,145.6,6.0,-23.66,87.79,-15.14,344.25,50.32,-78.92,5.0,37.606,,,,NaN,,,,0 / 0,880,2020-10-20 19:36:33:171
13.0931,-9.8789,3.469,5.819,-7.8698,0.6125,7.3106,-2.0584,2.8603,-90.82,-166.29,145.6,6.0,-23.66,87.79,-15.14,344.25,50.32,-78.92,5.0,37.606,,,,NaN,,,,0 / 0,885,2020-10-20 19:36:33:176
13.0931,-9.8789,3.469,5.819,-7.8698,0.6125,7.3106,-2.0584,2.8603,-90.82,-166.29,145.6,6.0,-24.86,88.39,-10.64,344.25,50.32,-78.92,5.0,37.606,,,,NaN,,,,0 / 0,891,2020-10-20 19:36:33:182
12.7868,-10.0583,3.548,5.5802,-8.0608,0.2345,7.2257,-2.0251,3.3143,-86.02,-139.79,129.99,6.0,-24.86,88.39,-10.64,344.25,50.32,-78.92,5.0,37.606,,,,NaN,,,,0 / 0,896,2020-10-20 19:36:33:187
12.7868,-10.0583,3.548,5.5802,-8.0608,0.2345,7.2257,-2.0251,3.3143,-86.02,-139.79,129.99,6.0,-24.86,88.39,-10.64,344.25,50.32,-78.92,5.0,37.606,,,,NaN,,,,0 / 0,900,2020-10-20 19:36:33:191
12.7868,-10.0583,3.548,5.5802,-8.0608,0.2345,7.2257,-2.0251,3.3143,-81.3,-111.9,117.28,3.0,-24.86,88.39,-10.64,344.25,50.32,-78.92,5.0,37.606,,,,NaN,,,,0 / 0,906,2020-10-20 19:36:33:197
12.4638,-9.764,3.6533,5.2779,-8.2632,-0.184,7.186,-1.5011,3.8373,-81.3,-111.9,117.28,3.0,-22.91,91.84,-9.74,344.77,55.28,-87.59,5.0,37.606,,,,NaN,,,,0 / 0,910,2020-10-20 19:36:33:201
12.4638,-9.764,3.6533,5.2779,-8.2632,-0.184,7.186,-1.5011,3.8373,-77.66,-91.66,108.5,3.0,-22.91,91.84,-9.74,344.77,55.28,-87.59,5.0,37.606,,,,NaN,,,,0 / 0,916,2020-10-20 19:36:33:207
12.4638,-9.764,3.6533,5.2779,-8.2632,-0.184,7.186,-1.5011,3.8373,-77.66,-91.66,108.5,3.0,-22.91,91.84,-9.74,344.77,55.28,-87.59,5.0,37.606,,,,NaN,,,,0 / 0,920,2020-10-20 19:36:33:211
12.4638,-9.764,3.6533,5.2779,-8.2632,-0.184,7.186,-1.5011,3.8373,-77.66,-91.66,108.5,3.0,-22.91,91.84,-9.74,344.77,55.28,-87.59,5.0,37.606,,,,NaN,,,,0 / 0,925,2020-10-20 19:36:33:216
12.8227,-9.1419,3.9021,5.0769,-8.3792,-0.4291,7.7349,-0.7446,4.3321,-72.58,-70.45,98.0,3.0,-21.86,94.09,-6.74,344.77,55.28,-87.59,5.0,37.606,,,,NaN,,,,0 / 0,930,2020-10-20 19:36:33:221
12.8227,-9.1419,3.9021,5.0769,-8.3792,-0.4291,7.7349,-0.7446,4.3321,-72.58,-70.45,98.0,3.0,-21.86,94.09,-6.74,344.77,55.28,-87.59,5.0,37.606,,,,NaN,,,,0 / 0,936,2020-10-20 19:36:33:227
12.8227,-9.1419,3.9021,5.0769,-8.3792,-0.4291,7.7349,-0.7446,4.3321,-62.68,-34.93,77.56,3.0,-21.86,94.09,-6.74,344.77,55.28,-87.59,5.0,37.606,,,,NaN,,,,0 / 0,940,2020-10-20 19:36:33:231
13.9402,-8.5963,3.5623,4.8778,-8.4824,-0.6528,9.039,-0.0732,4.2182,-62.68,-34.93,77.56,3.0,-21.86,94.09,-6.74,344.77,55.28,-87.59,5.0,37.606,,,,NaN,,,,0 / 0,946,2020-10-20 19:36:33:237
13.9402,-8.5963,3.5623,4.8778,-8.4824,-0.6528,9.039,-0.0732,4.2182,-55.82,-4.76,61.81,3.0,-20.81,96.04,-5.09,345.87,59.88,-97.62,5.0,37.606,,,,NaN,,,,0 / 0,951,2020-10-20 19:36:33:242
13.9402,-8.5963,3.5623,4.8778,-8.4824,-0.6528,9.039,-0.0732,4.2182,-55.82,-4.76,61.81,3.0,-20.81,96.04,-5.09,345.87,59.88,-97.62,5.0,37.606,,,,NaN,,,,0 / 0,956,2020-10-20 19:36:33:247
14.347,-8.1967,2.2654,4.7982,-8.5209,-0.7357,9.5163,0.3818,3.0061,-52.77,32.1,45.11,3.0,-20.81,96.04,-5.09,345.87,59.88,-97.62,5.0,37.606,,,,NaN,,,,0 / 0,961,2020-10-20 19:36:33:252
14.347,-8.1967,2.2654,4.7982,-8.5209,-0.7357,9.5163,0.3818,3.0061,-52.77,32.1,45.11,3.0,-20.81,96.04,-5.09,345.87,59.88,-97.62,5.0,35.648,,,,NaN,,,,0 / 0,965,2020-10-20 19:36:33:256
14.347,-8.1967,2.2654,4.7982,-8.5209,-0.7357,9.5163,0.3818,3.0061,-52.77,32.1,45.11,3.0,-21.41,94.84,-3.44,345.87,59.88,-97.62,5.0,35.648,,,,NaN,,,,0 / 0,971,2020-10-20 19:36:33:262
14.347,-8.1967,2.2654,4.7982,-8.5209,-0.7357,9.5163,0.3818,3.0061,-63.55,95.73,18.02,3.0,-21.41,94.84,-3.44,345.87,59.88,-97.62,5.0,35.648,,,,NaN,,,,0 / 0,976,2020-10-20 19:36:33:267
13.0931,-7.0889,-0.204,4.7988,-8.5179,-0.7667,8.2522,1.5039,0.5694,-63.55,95.73,18.02,3.0,-21.41,94.84,-3.44,345.87,59.88,-97.62,5.0,35.648,,,,NaN,,,,0 / 0,980,2020-10-20 19:36:33:271
13.0931,-7.0889,-0.204,4.7988,-8.5179,-0.7667,8.2522,1.5039,0.5694,-63.55,95.73,18.02,3.0,-21.41,94.84,-3.44,345.87,59.88,-97.62,5.0,35.648,,,,NaN,,,,0 / 0,986,2020-10-20 19:36:33:277
13.0931,-7.0889,-0.204,4.7988,-8.5179,-0.7667,8.2522,1.5039,0.5694,-89.84,150.92,-9.87,3.0,-20.21,94.99,-4.04,346.87,60.29,-99.08,5.0,35.648,,,,NaN,,,,0 / 0,991,2020-10-20 19:36:33:282
11.6526,-6.8137,0.1215,4.877,-8.4728,-0.7723,6.7283,1.7414,0.9013,-89.84,150.92,-9.87,3.0,-20.21,94.99,-4.04,346.87,60.29,-99.08,5.0,35.648,,,,NaN,,,,0 / 0,996,2020-10-20 19:36:33:287
11.6526,-6.8137,0.1215,4.877,-8.4728,-0.7723,6.7283,1.7414,0.9013,-105.1,176.93,-27.23,3.0,-20.21,94.99,-4.04,346.87,60.29,-99.08,5.0,35.648,,,,NaN,,,,0 / 0,1000,2020-10-20 19:36:33:291
11.6526,-6.8137,0.1215,4.877,-8.4728,-0.7723,6.7283,1.7414,0.9013,-105.1,176.93,-27.23,3.0,-20.21,94.99,-4.04,346.87,60.29,-99.08,5.0,35.648,,,,NaN,,,,0 / 0,1006,2020-10-20 19:36:33:297
11.6526,-6.8137,0.1215,4.877,-8.4728,-0.7723,6.7283,1.7414,0.9013,-105.1,176.93,-27.23,3.0,-20.21,94.99,-4.04,346.87,60.29,-99.08,5.0,35.648,,,,NaN,,,,0 / 0,1010,2020-10-20 19:36:33:301
10.1212,-7.0673,1.2341,5.0104,-8.3954,-0.7639,5.0589,1.4149,2.0059,-112.83,197.26,-42.6,3.0,-18.86,96.34,-4.19,346.87,60.29,-99.08,5.0,35.648,,,,NaN,,,,0 / 0,1015,2020-10-20 19:36:33:306
10.1212,-7.0673,1.2341,5.0104,-8.3954,-0.7639,5.0589,1.4149,2.0059,-110.1,213.68,-58.35,3.0,-18.86,96.34,-4.19,346.87,60.29,-99.08,5.0,35.648,,,,NaN,,,,0 / 0,1022,2020-10-20 19:36:33:313
10.1212,-7.0673,1.2341,5.0104,-8.3954,-0.7639,5.0589,1.4149,2.0059,-110.1,213.68,-58.35,3.0,-18.86,96.34,-4.19,346.87,60.29,-99.08,5.0,35.648,,,,NaN,,,,0 / 0,1025,2020-10-20 19:36:33:316
7.3743,-7.5483,2.9976,5.2372,-8.2622,-0.6918,2.0809,0.8025,3.6969,-110.1,213.68,-58.35,1.0,-18.86,96.94,-4.64,348.6,57.41,-97.52,5.0,35.648,,,,NaN,,,,0 / 0,1031,2020-10-20 19:36:33:322
7.3743,-7.5483,2.9976,5.2372,-8.2622,-0.6918,2.0809,0.8025,3.6969,-89.73,210.11,-67.76,1.0,-18.86,96.94,-4.64,348.6,57.41,-97.52,5.0,35.648,,,,NaN,,,,0 / 0,1035,2020-10-20 19:36:33:326
7.3743,-7.5483,2.9976,5.2372,-8.2622,-0.6918,2.0809,0.8025,3.6969,-89.73,210.11,-67.76,1.0,-18.86,96.94,-4.64,348.6,57.41,-97.52,5.0,35.648,,,,NaN,,,,0 / 0,1041,2020-10-20 19:36:33:332
5.4433,-7.4741,3.481,5.4163,-8.1548,-0.5773,-0.0297,0.766,4.0643,-89.73,210.11,-67.76,1.0,-18.86,96.94,-4.64,348.6,57.41,-97.52,5.0,35.648,,,,NaN,,,,0 / 0,1046,2020-10-20 19:36:33:337
5.4433,-7.4741,3.481,5.4163,-8.1548,-0.5773,-0.0297,0.766,4.0643,-57.92,189.42,-71.33,1.0,-17.81,96.94,-4.94,348.6,57.41,-97.52,5.0,35.648,,,,NaN,,,,0 / 0,1050,2020-10-20 19:36:33:341
5.4433,-7.4741,3.481,5.4163,-8.1548,-0.5773,-0.0297,0.766,4.0643,-57.92,189.42,-71.33,1.0,-17.81,96.94,-4.94,348.6,57.41,-97.52,5.0,35.648,,,,NaN,,,,0 / 0,1056,2020-10-20 19:36:33:347
5.4433,-7.4741,3.481,5.4163,-8.1548,-0.5773,-0.0297,0.766,4.0643,-57.92,189.42,-71.33,1.0,-17.81,96.94,-4.94,348.6,57.41,-97.52,5.0,35.648,,,,NaN,,,,0 / 0,1061,2020-10-20 19:36:33:352
2.3254,-8.0173,2.3779,5.6291,-8.0221,-0.3588,-3.3573,0.0812,2.7401,-36.99,168.28,-64.96,1.0,-17.81,96.94,-4.94,348.6,57.41,-97.52,5.0,35.648,,,,NaN,,,,0 / 0,1066,2020-10-20 19:36:33:357
2.3254,-8.0173,2.3779,5.6291,-8.0221,-0.3588,-3.3573,0.0812,2.7401,-36.99,168.28,-64.96,1.0,-19.31,96.34,-7.19,348.44,54.89,-93.65,5.0,35.648,,,,NaN,,,,0 / 0,1071,2020-10-20 19:36:33:362
2.3254,-8.0173,2.3779,5.6291,-8.0221,-0.3588,-3.3573,0.0812,2.7401,-36.99,168.28,-64.96,1.0,-19.31,96.34,-7.19,348.44,54.89,-93.65,5.0,35.648,,,,NaN,,,,0 / 0,1076,2020-10-20 19:36:33:367
0.6026,-8.089,0.0545,5.7252,-7.9596,-0.1927,-5.17,-0.0635,0.2488,-15.78,128.52,-39.94,1.0,-19.31,96.34,-7.19,348.44,54.89,-93.65,5.0,35.648,,,,NaN,,,,0 / 0,1081,2020-10-20 19:36:33:372
0.6026,-8.089,0.0545,5.7252,-7.9596,-0.1927,-5.17,-0.0635,0.2488,-15.78,128.52,-39.94,1.0,-19.31,96.34,-7.19,348.44,54.89,-93.65,5.0,35.648,,,,NaN,,,,0 / 0,1086,2020-10-20 19:36:33:377
0.6026,-8.089,0.0545,5.7252,-7.9596,-0.1927,-5.17,-0.0635,0.2488,-16.37,86.38,-8.26,1.0,-17.36,96.34,-7.19,348.44,54.89,-93.65,5.0,35.648,,,,NaN,,,,0 / 0,1091,2020-10-20 19:36:33:382
1.3061,-7.9551,-1.6205,5.7468,-7.9461,-0.06,-4.4785,0.0433,-1.5602,-16.37,86.38,-8.26,1.0,-17.36,96.34,-7.19,348.44,54.89,-93.65,5.0,35.648,,,,NaN,,,,0 / 0,1099,2020-10-20 19:36:33:390
1.3061,-7.9551,-1.6205,5.7468,-7.9461,-0.06,-4.4785,0.0433,-1.5602,-16.37,86.38,-8.26,1.0,-17.36,96.34,-7.19,348.44,54.89,-93.65,5.0,35.648,,,,NaN,,,,0 / 0,1100,2020-10-20 19:36:33:391
1.3061,-7.9551,-1.6205,5.7468,-7.9461,-0.06,-4.4785,0.0433,-1.5602,-29.78,56.11,19.74,1.0,-17.36,96.34,-7.19,348.44,54.89,-93.65,5.0,35.648,,,,NaN,,,,0 / 0,1105,2020-10-20 19:36:33:396
1.3061,-7.9551,-1.6205,5.7468,-7.9461,-0.06,-4.4785,0.0433,-1.5602,-29.78,56.11,19.74,1.0,-17.36,96.34,-7.19,348.44,54.89,-93.65,5.0,35.648,,,,NaN,,,,0 / 0,1110,2020-10-20 19:36:33:401
2.9212,-7.8306,-1.1156,5.6989,-7.9807,-0.0437,-2.8098,0.195,-1.0717,-29.78,56.11,19.74,1.0,-17.36,96.34,-6.74,350.36,54.47,-90.44,5.0,35.648,,,,NaN,,,,0 / 0,1115,2020-10-20 19:36:33:406
2.9212,-7.8306,-1.1156,5.6989,-7.9807,-0.0437,-2.8098,0.195,-1.0717,-42.45,38.96,38.08,1.0,-17.36,96.34,-6.74,350.36,54.47,-90.44,5.0,35.648,,,,NaN,,,,0 / 0,1120,2020-10-20 19:36:33:411
2.9212,-7.8306,-1.1156,5.6989,-7.9807,-0.0437,-2.8098,0.195,-1.0717,-42.45,38.96,38.08,1.0,-17.36,96.34,-6.74,350.36,54.47,-90.44,5.0,35.648,,,,NaN,,,,0 / 0,1125,2020-10-20 19:36:33:416
4.8666,-7.644,1.3514,5.5894,-8.0574,-0.0863,-2.8098,0.195,-1.0717,-44.27,30.38,43.33,1.0,-17.21,96.79,-9.14,350.36,54.47,-90.44,5.0,35.648,,,,NaN,,,,0 / 0,1131,2020-10-20 19:36:33:422
4.8666,-7.644,1.3514,5.5894,-8.0574,-0.0863,-0.7505,0.4533,1.4381,-44.27,30.38,43.33,1.0,-17.21,96.79,-9.14,350.36,54.47,-90.44,5.0,35.648,,,,NaN,,,,0 / 0,1136,2020-10-20 19:36:33:427
4.8666,-7.644,1.3514,5.5894,-8.0574,-0.0863,-0.7505,0.4533,1.4381,-44.27,30.38,43.33,1.0,-17.21,96.79,-9.14,350.36,54.47,-90.44,5.0,35.648,,,,NaN,,,,0 / 0,1142,2020-10-20 19:36:33:433
4.8666,-7.644,1.3514,5.5894,-8.0574,-0.0863,-0.7505,0.4533,1.4381,-44.27,30.38,43.33,1.0,-17.21,96.79,-9.14,350.36,54.47,-90.44,5.0,35.648,,,,NaN,,,,0 / 0,1146,2020-10-20 19:36:33:437
5.4313,-7.9168,2.6076,5.4983,-8.1193,-0.124,-0.0932,0.2412,2.7322,-34.29,17.36,45.15,1.0,-15.71,96.79,-6.59,349.89,55.89,-91.29,5.0,35.648,,,,NaN,,,,0 / 0,1151,2020-10-20 19:36:33:442
5.4313,-7.9168,2.6076,5.4983,-8.1193,-0.124,-0.0932,0.2412,2.7322,-34.29,17.36,45.15,1.0,-15.71,96.79,-6.59,349.89,55.89,-91.29,5.0,35.648,,,,NaN,,,,0 / 0,1156,2020-10-20 19:36:33:447
5.4313,-7.9168,2.6076,5.4983,-8.1193,-0.124,-0.0932,0.2412,2.7322,-34.29,17.36,45.15,1.0,-15.71,96.79,-6.59,349.89,55.89,-91.29,5.0,35.648,,,,NaN,,,,0 / 0,1161,2020-10-20 19:36:33:452
5.472,-8.4336,2.6579,5.4036,-8.1822,-0.151,0.0427,-0.2125,2.8095,-18.72,2.17,46.58,1.0,-15.71,96.79,-6.59,349.89,55.89,-91.29,5.0,35.648,,,,NaN,,,,0 / 0,1166,2020-10-20 19:36:33:457
5.472,-8.4336,2.6579,5.4036,-8.1822,-0.151,0.0427,-0.2125,2.8095,-18.72,2.17,46.58,1.0,-16.61,99.49,-7.49,349.89,55.89,-91.29,5.0,35.648,,,,NaN,,,,0 / 0,1171,2020-10-20 19:36:33:462
5.3643,-8.4791,2.7225,5.2667,-8.2705,-0.1738,0.0427,-0.2125,2.8095,2.67,-22.68,50.5,1.0,-16.61,99.49,-7.49,349.89,55.89,-91.29,5.0,35.648,,,,NaN,,,,0 / 0,1176,2020-10-20 19:36:33:467
5.3643,-8.4791,2.7225,5.2667,-8.2705,-0.1738,0.072,-0.1684,2.8971,2.67,-22.68,50.5,1.0,-16.61,99.49,-7.49,349.89,55.89,-91.29,5.0,35.648,,,,NaN,,,,0 / 0,1181,2020-10-20 19:36:33:472
5.3643,-8.4791,2.7225,5.2667,-8.2705,-0.1738,0.072,-0.1684,2.8971,2.67,-22.68,50.5,1.0,-16.61,99.49,-7.49,349.89,55.89,-91.29,5.0,35.648,,,,NaN,,,,0 / 0,1185,2020-10-20 19:36:33:476
5.3643,-8.4791,2.7225,5.2667,-8.2705,-0.1738,0.072,-0.1684,2.8971,2.67,-22.68,50.5,1.0,-13.46,99.19,-7.79,348.78,57.5,-91.89,5.0,35.648,,,,NaN,,,,0 / 0,1190,2020-10-20 19:36:33:481
5.4002,-8.6322,1.7821,5.1536,-8.3413,-0.1821,0.221,-0.2496,1.9651,18.45,-41.37,54.39,1.0,-13.46,99.19,-7.79,348.78,57.5,-91.89,5.0,35.648,,,,NaN,,,,0 / 0,1195,2020-10-20 19:36:33:486
5.4002,-8.6322,1.7821,5.1536,-8.3413,-0.1821,0.221,-0.2496,1.9651,18.45,-41.37,54.39,1.0,-13.46,99.19,-7.79,348.78,57.5,-91.89,5.0,35.648,,,,NaN,,,,0 / 0,1200,2020-10-20 19:36:33:491
5.4002,-8.6322,1.7821,5.1536,-8.3413,-0.1821,0.221,-0.2496,1.9651,24.89,-50.29,57.19,1.0,-13.46,99.19,-7.79,348.78,57.5,-91.89,5.0,35.648,,,,NaN,,,,0 / 0,1206,2020-10-20 19:36:33:497
6.0247,-8.4193,0.5881,4.9924,-8.4386,-0.1913,0.221,-0.2496,1.9651,24.89,-50.29,57.19,1.0,-14.06,100.24,-7.19,348.78,57.5,-91.89,5.0,35.648,,,,NaN,,,,0 / 0,1211,2020-10-20 19:36:33:502
6.0247,-8.4193,0.5881,4.9924,-8.4386,-0.1913,1.0065,0.063,0.7804,24.82,-49.63,57.05,1.0,-14.06,100.24,-7.19,348.78,57.5,-91.89,5.0,35.648,,,,NaN,,,,0 / 0,1215,2020-10-20 19:36:33:506
6.0247,-8.4193,0.5881,4.9924,-8.4386,-0.1913,1.0065,0.063,0.7804,24.82,-49.63,57.05,1.0,-14.06,100.24,-7.19,348.78,57.5,-91.89,5.0,35.648,,,,NaN,,,,0 / 0,1220,2020-10-20 19:36:33:511
6.0247,-8.4193,0.5881,4.9924,-8.4386,-0.1913,1.0065,0.063,0.7804,24.82,-49.63,57.05,1.0,-14.06,100.24,-7.19,348.78,57.5,-91.89,5.0,35.648,,,,NaN,,,,0 / 0,1225,2020-10-20 19:36:33:516
6.6373,-8.2254,0.4277,4.8743,-8.5072,-0.1968,1.7367,0.3277,0.6256,22.76,-45.11,55.58,1.0,-12.11,100.84,-7.34,349.43,60.17,-92.31,5.0,35.648,,,,NaN,,,,0 / 0,1231,2020-10-20 19:36:33:522
6.6373,-8.2254,0.4277,4.8743,-8.5072,-0.1968,1.7367,0.3277,0.6256,22.76,-45.11,55.58,1.0,-12.11,100.84,-7.34,349.43,60.17,-92.31,5.0,35.648,,,,NaN,,,,0 / 0,1235,2020-10-20 19:36:33:526
6.6373,-8.2254,0.4277,4.8743,-8.5072,-0.1968,1.7367,0.3277,0.6256,20.1,-34.93,50.33,1.0,-12.11,100.84,-7.34,349.43,60.17,-92.31,5.0,35.648,,,,NaN,,,,0 / 0,1240,2020-10-20 19:36:33:531
7.1422,-8.1632,0.5952,4.734,-8.5862,-0.1928,2.3808,0.4725,0.7892,20.1,-34.93,50.33,1.0,-12.11,100.84,-7.34,349.43,60.17,-92.31,5.0,35.648,,,,NaN,,,,0 / 0,1245,2020-10-20 19:36:33:536
7.1422,-8.1632,0.5952,4.734,-8.5862,-0.1928,2.3808,0.4725,0.7892,19.92,-28.07,46.44,1.0,-12.11,100.84,-7.34,349.43,60.17,-92.31,5.0,35.648,,,,NaN,,,,0 / 0,1251,2020-10-20 19:36:33:542
7.1422,-8.1632,0.5952,4.734,-8.5862,-0.1928,2.3808,0.4725,0.7892,19.92,-28.07,46.44,1.0,-12.11,100.84,-7.34,349.43,60.17,-92.31,5.0,35.648,,,,NaN,,,,0 / 0,1256,2020-10-20 19:36:33:547
7.5035,-8.1872,0.4971,4.6456,-8.6347,-0.1763,2.8294,0.5004,0.6745,19.99,-22.71,41.93,1.0,-12.11,100.84,-7.34,349.43,60.17,-92.31,5.0,35.648,,,,NaN,,,,0 / 0,1261,2020-10-20 19:36:33:552
7.5035,-8.1872,0.4971,4.6456,-8.6347,-0.1763,2.8294,0.5004,0.6745,19.99,-22.71,41.93,1.0,-12.11,100.84,-7.34,349.43,60.17,-92.31,5.0,35.648,,,,NaN,,,,0 / 0,1266,2020-10-20 19:36:33:557
7.5035,-8.1872,0.4971,4.6456,-8.6347,-0.1763,2.8294,0.5004,0.6745,19.99,-22.71,41.93,1.0,-13.46,100.69,-5.99,349.96,61.7,-92.17,5.0,35.648,,,,NaN,,,,0 / 0,1270,2020-10-20 19:36:33:561
7.5011,-8.0819,0.5282,4.5757,-8.6724,-0.15,2.8957,0.6467,0.6792,21.5,-17.36,33.32,1.0,-13.46,100.69,-5.99,349.96,61.7,-92.17,5.0,35.648,,,,NaN,,,,0 / 0,1276,2020-10-20 19:36:33:567
7.5011,-8.0819,0.5282,4.5757,-8.6724,-0.15,2.8957,0.6467,0.6792,21.5,-17.36,33.32,1.0,-13.46,100.69,-5.99,349.96,61.7,-92.17,5.0,35.648,,,,NaN,,,,0 / 0,1281,2020-10-20 19:36:33:572
7.5011,-8.0819,0.5282,4.5757,-8.6724,-0.15,2.8957,0.6467,0.6792,21.5,-17.36,33.32,1.0,-13.46,100.69,-5.99,349.96,61.7,-92.17,5.0,35.648,,,,NaN,,,,0 / 0,1285,2020-10-20 19:36:33:576
7.3073,-7.9981,0.1286,4.5226,-8.7008,-0.1143,2.7542,0.7614,0.2437,24.75,-15.99,26.25,1.0,-11.96,100.99,-7.49,349.96,61.7,-92.17,5.0,35.648,,,,NaN,,,,0 / 0,1290,2020-10-20 19:36:33:581
7.3073,-7.9981,0.1286,4.5226,-8.7008,-0.1143,2.7542,0.7614,0.2437,24.75,-15.99,26.25,1.0,-11.96,100.99,-7.49,349.96,61.7,-92.17,5.0,19.395,,,,NaN,,,,0 / 0,1296,2020-10-20 19:36:33:587
7.3073,-7.9981,0.1286,4.5226,-8.7008,-0.1143,2.7542,0.7614,0.2437,25.52,-16.59,21.1,1.0,-11.96,100.99,-7.49,349.96,61.7,-92.17,5.0,19.395,,,,NaN,,,,0 / 0,1300,2020-10-20 19:36:33:591
7.4102,-7.9407,-0.1609,4.4863,-8.72,-0.077,2.8925,0.8402,-0.0834,25.52,-16.59,21.1,1.0,-11.96,100.99,-7.49,349.96,61.7,-92.17,5.0,19.395,,,,NaN,,,,0 / 0,1305,2020-10-20 19:36:33:596
7.4102,-7.9407,-0.1609,4.4863,-8.72,-0.077,2.8925,0.8402,-0.0834,25.66,-17.15,15.36,1.0,-11.36,99.04,-8.39,347.06,62.77,-90.98,5.0,19.395,,,,NaN,,,,0 / 0,1310,2020-10-20 19:36:33:601
7.4102,-7.9407,-0.1609,4.4863,-8.72,-0.077,2.8925,0.8402,-0.0834,25.66,-17.15,15.36,1.0,-11.36,99.04,-8.39,347.06,62.77,-90.98,5.0,19.395,,,,NaN,,,,0 / 0,1315,2020-10-20 19:36:33:606
7.1781,-8.034,-0.0054,4.4677,-8.7297,-0.0389,2.678,0.7589,0.0339,25.66,-17.15,15.36,1.0,-11.36,99.04,-8.39,347.06,62.77,-90.98,5.0,19.395,,,,NaN,,,,0 / 0,1320,2020-10-20 19:36:33:611
7.1781,-8.034,-0.0054,4.4677,-8.7297,-0.0389,2.678,0.7589,0.0339,27.97,-18.86,8.43,1.0,-11.36,99.04,-8.39,347.06,62.77,-90.98,5.0,19.395,,,,NaN,,,,0 / 0,1325,2020-10-20 19:36:33:616
7.1182,-7.9383,-0.137,4.4634,-8.732,-0.0116,2.6219,0.858,-0.1252,27.97,-18.86,8.43,1.0,-11.36,100.09,-8.09,347.06,62.77,-90.98,5.0,19.395,,,,NaN,,,,0 / 0,1330,2020-10-20 19:36:33:621
7.1182,-7.9383,-0.137,4.4634,-8.732,-0.0116,2.6219,0.858,-0.1252,27.97,-18.86,8.43,1.0,-11.36,100.09,-8.09,347.06,62.77,-90.98,5.0,19.395,,,,NaN,,,,0 / 0,1335,2020-10-20 19:36:33:626
7.1182,-7.9383,-0.137,4.4634,-8.732,-0.0116,2.6219,0.858,-0.1252,30.95,-20.37,0.83,1.0,-11.36,100.09,-8.09,347.06,62.77,-90.98,5.0,19.395,,,,NaN,,,,0 / 0,1340,2020-10-20 19:36:33:631
7.1374,-7.9,-0.46,4.4718,-8.7277,0.0324,2.632,0.8933,-0.4926,30.95,-20.37,0.83,1.0,-11.36,100.09,-8.09,347.06,62.77,-90.98,5.0,19.395,,,,NaN,,,,0 / 0,1346,2020-10-20 19:36:33:637
7.1374,-7.9,-0.46,4.4718,-8.7277,0.0324,2.632,0.8933,-0.4926,31.82,-17.43,-8.51,1.0,-12.86,99.79,-8.39,346.9,62.87,-89.59,5.0,19.395,,,,NaN,,,,0 / 0,1350,2020-10-20 19:36:33:641
7.1374,-7.9,-0.46,4.4718,-8.7277,0.0324,2.632,0.8933,-0.4926,31.82,-17.43,-8.51,1.0,-12.86,99.79,-8.39,346.9,62.87,-89.59,5.0,19.395,,,,NaN,,,,0 / 0,1355,2020-10-20 19:36:33:646
6.6205,-8.1704,-1.2592,4.5121,-8.7065,0.0948,2.0734,0.6037,-1.3547,31.82,-17.43,-8.51,1.0,-12.86,99.79,-8.39,346.9,62.87,-89.59,5.0,19.395,,,,NaN,,,,0 / 0,1360,2020-10-20 19:36:33:651
6.6205,-8.1704,-1.2592,4.5121,-8.7065,0.0948,2.0734,0.6037,-1.3547,27.48,-6.47,-15.02,1.0,-12.86,99.79,-8.39,346.9,62.87,-89.59,5.0,19.395,,,,NaN,,,,0 / 0,1365,2020-10-20 19:36:33:656
6.6205,-8.1704,-1.2592,4.5121,-8.7065,0.0948,2.0734,0.6037,-1.3547,27.48,-6.47,-15.02,1.0,-12.11,101.14,-9.14,346.9,62.87,-89.59,5.0,19.395,,,,NaN,,,,0 / 0,1370,2020-10-20 19:36:33:661
6.6205,-8.1704,-1.2592,4.5121,-8.7065,0.0948,2.0734,0.6037,-1.3547,27.48,-6.47,-15.02,1.0,-12.11,101.14,-9.14,346.9,62.87,-89.59,5.0,19.395,,,,NaN,,,,0 / 0,1375,2020-10-20 19:36:33:666
6.063,-8.2326,-1.5463,4.5536,-8.6842,0.1406,1.4736,0.5199,-1.688,22.2,1.89,-17.01,1.0,-12.11,101.14,-9.14,346.9,62.87,-89.59,5.0,19.395,,,,NaN,,,,0 / 0,1381,2020-10-20 19:36:33:672
6.063,-8.2326,-1.5463,4.5536,-8.6842,0.1406,1.4736,0.5199,-1.688,22.2,1.89,-17.01,1.0,-12.11,101.14,-9.14,346.9,62.87,-89.59,5.0,19.395,,,,NaN,,,,0 / 0,1385,2020-10-20 19:36:33:676
6.063,-8.2326,-1.5463,4.5536,-8.6842,0.1406,1.4736,0.5199,-1.688,22.2,1.89,-17.01,1.0,-12.11,101.14,-9.14,346.9,62.87,-89.59,5.0,19.395,,,,NaN,,,,0 / 0,1390,2020-10-20 19:36:33:681
5.9577,-8.4312,-1.3405,4.5978,-8.6601,0.1813,1.3232,0.298,-1.5233,14.11,12.53,-18.55,1.0,-10.76,99.49,-10.04,345.29,62.02,-87.74,5.0,19.395,,,,NaN,,,,0 / 0,1396,2020-10-20 19:36:33:687
5.9577,-8.4312,-1.3405,4.5978,-8.6601,0.1813,1.3232,0.298,-1.5233,14.11,12.53,-18.55,1.0,-10.76,99.49,-10.04,345.29,62.02,-87.74,5.0,19.395,,,,NaN,,,,0 / 0,1400,2020-10-20 19:36:33:691
5.9577,-8.4312,-1.3405,4.5978,-8.6601,0.1813,1.3232,0.298,-1.5233,10.58,17.54,-20.27,1.0,-10.76,99.49,-10.04,345.29,62.02,-87.74,5.0,19.395,,,,NaN,,,,0 / 0,1405,2020-10-20 19:36:33:696
5.8644,-8.5844,-0.7543,4.6603,-8.6254,0.2338,1.1659,0.1117,-0.99,10.58,17.54,-20.27,1.0,-11.51,99.49,-8.99,345.29,62.02,-87.74,5.0,19.395,,,,NaN,,,,0 / 0,1410,2020-10-20 19:36:33:701
5.8644,-8.5844,-0.7543,4.6603,-8.6254,0.2338,1.1659,0.1117,-0.99,10.72,16.21,-21.46,1.0,-11.51,99.49,-8.99,345.29,62.02,-87.74,5.0,19.395,,,,NaN,,,,0 / 0,1415,2020-10-20 19:36:33:706
5.8189,-8.7208,-0.6897,4.6603,-8.6254,0.2338,1.1659,0.1117,-0.99,10.72,16.21,-21.46,1.0,-11.51,99.49,-8.99,345.29,62.02,-87.74,5.0,19.395,,,,NaN,,,,0 / 0,1421,2020-10-20 19:36:33:712
5.8189,-8.7208,-0.6897,4.7115,-8.5964,0.2724,1.0678,-0.0522,-0.9644,10.72,16.21,-21.46,1.0,-11.51,99.49,-8.99,345.29,62.02,-87.74,5.0,19.395,,,,NaN,,,,0 / 0,1426,2020-10-20 19:36:33:717
5.8189,-8.7208,-0.6897,4.7115,-8.5964,0.2724,1.0678,-0.0522,-0.9644,12.96,11.45,-23.7,1.0,-12.71,97.39,-8.99,346.7,61.23,-86.69,5.0,19.395,,,,NaN,,,,0 / 0,1431,2020-10-20 19:36:33:722
5.8189,-8.7208,-0.6897,4.7115,-8.5964,0.2724,1.0678,-0.0522,-0.9644,12.96,11.45,-23.7,1.0,-12.71,97.39,-8.99,346.7,61.23,-86.69,5.0,19.395,,,,NaN,,,,0 / 0,1436,2020-10-20 19:36:33:727
5.6873,-8.7495,-1.1659,4.7115,-8.5964,0.2724,1.0678,-0.0522,-0.9644,12.85,8.61,-24.43,1.0,-12.71,97.39,-8.99,346.7,61.23,-86.69,5.0,19.395,,,,NaN,,,,0 / 0,1441,2020-10-20 19:36:33:732
5.6873,-8.7495,-1.1659,4.7844,-8.5545,0.3168,0.8735,-0.128,-1.5812,12.85,8.61,-24.43,1.0,-12.71,97.39,-8.99,346.7,61.23,-86.69,5.0,19.395,,,,NaN,,,,0 / 0,1445,2020-10-20 19:36:33:736
5.7878,-8.7375,-1.2113,4.7844,-8.5545,0.3168,0.8735,-0.128,-1.5812,10.09,6.76,-25.24,1.0,-12.71,98.44,-9.29,346.7,61.23,-86.69,5.0,19.395,,,,NaN,,,,0 / 0,1451,2020-10-20 19:36:33:742
5.7878,-8.7375,-1.2113,4.7844,-8.5545,0.3168,0.8735,-0.128,-1.5812,10.09,6.76,-25.24,1.0,-12.71,98.44,-9.29,346.7,61.23,-86.69,5.0,19.395,,,,NaN,,,,0 / 0,1455,2020-10-20 19:36:33:746
5.7878,-8.7375,-1.2113,4.8425,-8.521,0.3364,0.9741,-0.1361,-1.5028,6.76,5.53,-26.57,1.0,-12.71,98.44,-9.29,346.7,61.23,-86.69,5.0,19.395,,,,NaN,,,,0 / 0,1460,2020-10-20 19:36:33:751
5.7878,-8.7375,-1.2113,4.8425,-8.521,0.3364,0.9741,-0.1361,-1.5028,6.76,5.53,-26.57,1.0,-12.71,98.44,-9.29,346.7,61.23,-86.69,5.0,19.395,,,,NaN,,,,0 / 0,1465,2020-10-20 19:36:33:756
6.0439,-8.7614,-0.9816,4.8425,-8.521,0.3364,0.9741,-0.1361,-1.5028,2.25,4.87,-29.19,1.0,-14.06,97.69,-11.54,342.85,60.33,-86.03,5.0,19.395,,,,NaN,,,,0 / 0,1470,2020-10-20 19:36:33:761
6.0439,-8.7614,-0.9816,4.8425,-8.521,0.3364,0.9741,-0.1361,-1.5028,2.25,4.87,-29.19,1.0,-14.06,97.69,-11.54,342.85,60.33,-86.03,5.0,19.395,,,,NaN,,,,0 / 0,1475,2020-10-20 19:36:33:766
6.4387,-8.8787,-0.5868,4.9288,-8.471,0.3466,1.3374,-0.2886,-1.085,-0.03,4.73,-31.68,1.0,-14.06,97.69,-11.54,342.85,60.33,-86.03,5.0,19.395,,,,NaN,,,,0 / 0,1480,2020-10-20 19:36:33:771
6.4387,-8.8787,-0.5868,4.9288,-8.471,0.3466,1.3374,-0.2886,-1.085,-0.03,4.73,-31.68,1.0,-14.06,97.69,-11.54,342.85,60.33,-86.03,5.0,19.395,,,,NaN,,,,0 / 0,1486,2020-10-20 19:36:33:777
6.4387,-8.8787,-0.5868,4.9288,-8.471,0.3466,1.3374,-0.2886,-1.085,-0.03,4.73,-31.68,1.0,-14.06,97.69,-11.54,342.85,60.33,-86.03,5.0,19.395,,,,NaN,,,,0 / 0,1490,2020-10-20 19:36:33:781
6.654,-8.905,-0.271,5.0032,-8.4272,0.3477,1.6024,-0.3961,-0.622,-1.53,4.87,-34.65,1.0,-14.81,98.89,-9.74,342.85,60.33,-86.03,5.0,19.395,,,,NaN,,,,0 / 0,1496,2020-10-20 19:36:33:787
6.654,-8.905,-0.271,5.0032,-8.4272,0.3477,1.6024,-0.3961,-0.622,-1.53,4.87,-34.65,1.0,-14.81,98.89,-9.74,342.85,60.33,-86.03,5.0,19.395,,,,NaN,,,,0 / 0,1500,2020-10-20 19:36:33:791
6.654,-8.905,-0.271,5.0032,-8.4272,0.3477,1.6024,-0.3961,-0.622,-2.06,5.5,-39.55,1.0,-14.81,98.89,-9.74,342.85,60.33,-86.03,5.0,19.395,,,,NaN,,,,0 / 0,1506,2020-10-20 19:36:33:797
7.0871,-8.637,0.4277,5.1185,-8.3576,0.35,1.9159,-0.1933,0.0742,-2.06,5.5,-39.55,1.0,-14.36,97.24,-10.94,345.3,58.46,-86.09,5.0,19.395,,,,NaN,,,,0 / 0,1510,2020-10-20 19:36:33:801
7.0871,-8.637,0.4277,5.1185,-8.3576,0.35,1.9159,-0.1933,0.0742,-1.64,6.76,-43.33,1.0,-14.36,97.24,-10.94,345.3,58.46,-86.09,5.0,19.395,,,,NaN,,,,0 / 0,1515,2020-10-20 19:36:33:806
7.0871,-8.637,0.4277,5.1185,-8.3576,0.35,1.9159,-0.1933,0.0742,-1.64,6.76,-43.33,1.0,-14.36,97.24,-10.94,345.3,58.46,-86.09,5.0,19.395,,,,NaN,,,,0 / 0,1521,2020-10-20 19:36:33:812
7.4556,-8.5006,0.9709,5.219,-8.2947,0.3602,2.1803,-0.1164,0.6068,-0.13,9.66,-47.39,1.0,-14.36,97.24,-10.94,345.3,58.46,-86.09,5.0,19.395,,,,NaN,,,,0 / 0,1526,2020-10-20 19:36:33:817
7.4556,-8.5006,0.9709,5.219,-8.2947,0.3602,2.1803,-0.1164,0.6068,-0.13,9.66,-47.39,1.0,-13.91,96.04,-10.64,345.3,58.46,-86.09,5.0,19.395,,,,NaN,,,,0 / 0,1531,2020-10-20 19:36:33:822
7.4556,-8.5006,0.9709,5.219,-8.2947,0.3602,2.1803,-0.1164,0.6068,-0.13,9.66,-47.39,1.0,-13.91,96.04,-10.64,345.3,58.46,-86.09,5.0,19.395,,,,NaN,,,,0 / 0,1535,2020-10-20 19:36:33:826
7.604,-8.5078,1.2293,5.3317,-8.2216,0.386,2.2119,-0.1931,0.839,3.02,16.42,-54.01,1.0,-13.91,96.04,-10.64,345.3,58.46,-86.09,5.0,19.395,,,,NaN,,,,0 / 0,1541,2020-10-20 19:36:33:832
7.604,-8.5078,1.2293,5.3317,-8.2216,0.386,2.2119,-0.1931,0.839,3.02,16.42,-54.01,1.0,-13.91,96.04,-10.64,345.3,58.46,-86.09,5.0,19.395,,,,NaN,,,,0 / 0,1546,2020-10-20 19:36:33:837
7.604,-8.5078,1.2293,5.3317,-8.2216,0.386,2.2119,-0.1931,0.839,5.26,21.77,-58.8,1.0,-15.56,97.39,-10.04,347.22,56.97,-85.86,5.0,19.395,,,,NaN,,,,0 / 0,1550,2020-10-20 19:36:33:841
7.458,-8.4288,1.2724,5.4563,-8.1372,0.4299,1.937,-0.1953,0.8375,5.26,21.77,-58.8,1.0,-15.56,97.39,-10.04,347.22,56.97,-85.86,5.0,19.395,,,,NaN,,,,0 / 0,1556,2020-10-20 19:36:33:847
7.458,-8.4288,1.2724,5.4563,-8.1372,0.4299,1.937,-0.1953,0.8375,7.92,27.62,-63.04,1.0,-15.56,97.39,-10.04,347.22,56.97,-85.86,5.0,19.395,,,,NaN,,,,0 / 0,1560,2020-10-20 19:36:33:851
7.458,-8.4288,1.2724,5.4563,-8.1372,0.4299,1.937,-0.1953,0.8375,7.92,27.62,-63.04,1.0,-15.56,97.39,-10.04,347.22,56.97,-85.86,5.0,19.395,,,,NaN,,,,0 / 0,1565,2020-10-20 19:36:33:856
6.9436,-8.3666,1.1576,5.5888,-8.0431,0.4933,1.2862,-0.2248,0.6582,7.92,27.62,-63.04,1.0,-16.16,96.79,-10.19,347.22,56.97,-85.86,5.0,19.395,,,,NaN,,,,0 / 0,1570,2020-10-20 19:36:33:861
6.9436,-8.3666,1.1576,5.5888,-8.0431,0.4933,1.2862,-0.2248,0.6582,11.7,34.3,-66.47,1.0,-16.16,96.79,-10.19,347.22,56.97,-85.86,5.0,19.395,,,,NaN,,,,0 / 0,1575,2020-10-20 19:36:33:866
6.9436,-8.3666,1.1576,5.5888,-8.0431,0.4933,1.2862,-0.2248,0.6582,11.7,34.3,-66.47,1.0,-16.16,96.79,-10.19,347.22,56.97,-85.86,5.0,19.395,,,,NaN,,,,0 / 0,1581,2020-10-20 19:36:33:872
6.0797,-8.4719,0.3775,5.7195,-7.9456,0.5702,0.2886,-0.4268,-0.1998,13.34,36.51,-65.98,1.0,-16.16,96.79,-10.19,347.22,56.97,-85.86,5.0,19.395,,,,NaN,,,,0 / 0,1586,2020-10-20 19:36:33:877
6.0797,-8.4719,0.3775,5.7195,-7.9456,0.5702,0.2886,-0.4268,-0.1998,13.34,36.51,-65.98,1.0,-16.16,96.79,-10.19,347.22,56.97,-85.86,5.0,19.395,,,,NaN,,,,0 / 0,1590,2020-10-20 19:36:33:881
5.4839,-8.5341,-0.3451,5.7195,-7.9456,0.5702,0.2886,-0.4268,-0.1998,11.59,37.63,-62.62,1.0,-16.46,96.04,-9.89,348.88,54.12,-84.31,5.0,19.395,,,,NaN,,,,0 / 0,1595,2020-10-20 19:36:33:886
5.4839,-8.5341,-0.3451,5.8369,-7.854,0.6442,-0.6442,-0.5693,-1.2917,11.59,37.63,-62.62,1.0,-16.46,96.04,-9.89,348.88,54.12,-84.31,5.0,19.395,,,,NaN,,,,0 / 0,1601,2020-10-20 19:36:33:892
5.4839,-8.5341,-0.3451,5.8369,-7.854,0.6442,-0.6442,-0.5693,-1.2917,11.59,37.63,-62.62,1.0,-16.46,96.04,-9.89,348.88,54.12,-84.31,5.0,19.395,,,,NaN,,,,0 / 0,1605,2020-10-20 19:36:33:896
5.1107,-8.3092,-0.9601,5.9045,-7.8,0.6838,-0.8678,-0.4115,-1.6525,2.6,38.01,-54.25,1.0,-16.46,96.04,-9.89,348.88,54.12,-84.31,5.0,19.395,,,,NaN,,,,0 / 0,1610,2020-10-20 19:36:33:901
5.1107,-8.3092,-0.9601,5.9045,-7.8,0.6838,-0.8678,-0.4115,-1.6525,2.6,38.01,-54.25,1.0,-18.86,96.34,-12.59,348.88,54.12,-84.31,5.0,12.193,,,,NaN,,,,0 / 0,1615,2020-10-20 19:36:33:906
5.1107,-8.3092,-0.9601,5.9045,-7.8,0.6838,-0.8678,-0.4115,-1.6525,-8.95,34.69,-47.25,1.0,-18.86,96.34,-12.59,348.88,54.12,-84.31,5.0,12.193,,,,NaN,,,,0 / 0,1620,2020-10-20 19:36:33:911
5.1107,-8.3092,-0.9601,5.9045,-7.8,0.6838,-0.8678,-0.4115,-1.6525,-8.95,34.69,-47.25,1.0,-18.86,96.34,-12.59,348.88,54.12,-84.31,5.0,12.193,,,,NaN,,,,0 / 0,1626,2020-10-20 19:36:33:917
5.1657,-7.9335,-0.5988,6.0199,-7.7071,0.7291,-0.9282,-0.1317,-1.3368,-8.95,34.69,-47.25,1.0,-18.86,96.34,-12.59,348.88,54.12,-84.31,5.0,12.193,,,,NaN,,,,0 / 0,1631,2020-10-20 19:36:33:922
5.1657,-7.9335,-0.5988,6.0199,-7.7071,0.7291,-0.9282,-0.1317,-1.3368,-14.97,30.49,-44.14,2.0,-16.31,95.89,-12.89,346.47,51.8,-83.09,5.0,12.193,,,,NaN,,,,0 / 0,1635,2020-10-20 19:36:33:926
5.1657,-7.9335,-0.5988,6.0199,-7.7071,0.7291,-0.9282,-0.1317,-1.3368,-14.97,30.49,-44.14,2.0,-16.31,95.89,-12.89,346.47,51.8,-83.09,5.0,12.193,,,,NaN,,,,0 / 0,1640,2020-10-20 19:36:33:931
5.0269,-7.4741,0.2866,6.0963,-7.6461,0.7369,-1.1424,0.2635,-0.4591,-18.05,25.2,-41.9,2.0,-16.31,95.89,-12.89,346.47,51.8,-83.09,5.0,12.193,,,,NaN,,,,0 / 0,1645,2020-10-20 19:36:33:936
5.0269,-7.4741,0.2866,6.0963,-7.6461,0.7369,-1.1424,0.2635,-0.4591,-18.05,25.2,-41.9,2.0,-16.31,95.89,-12.89,346.47,51.8,-83.09,5.0,12.193,,,,NaN,,,,0 / 0,1650,2020-10-20 19:36:33:941
5.0269,-7.4741,0.2866,6.0963,-7.6461,0.7369,-1.1424,0.2635,-0.4591,-18.05,25.2,-41.9,2.0,-18.26,94.24,-11.24,346.47,51.8,-83.09,5.0,12.193,,,,NaN,,,,0 / 0,1655,2020-10-20 19:36:33:946
5.0269,-7.4741,0.2866,6.0963,-7.6461,0.7369,-1.1424,0.2635,-0.4591,-18.05,25.2,-41.9,2.0,-18.26,94.24,-11.24,346.47,51.8,-83.09,5.0,12.193,,,,NaN,,,,0 / 0,1660,2020-10-20 19:36:33:951
4.9073,-7.4119,1.0427,6.193,-7.5686,0.7302,-1.3567,0.2434,0.3042,-14.94,11.9,-39.83,2.0,-18.26,94.24,-11.24,346.47,51.8,-83.09,5.0,12.193,,,,NaN,,,,0 / 0,1665,2020-10-20 19:36:33:956
4.9073,-7.4119,1.0427,6.193,-7.5686,0.7302,-1.3567,0.2434,0.3042,-14.94,11.9,-39.83,2.0,-18.26,94.24,-11.24,346.47,51.8,-83.09,5.0,12.193,,,,NaN,,,,0 / 0,1670,2020-10-20 19:36:33:961
4.9073,-7.4119,1.0427,6.193,-7.5686,0.7302,-1.3567,0.2434,0.3042,-14.94,11.9,-39.83,2.0,-17.81,94.39,-10.79,348.91,50.51,-83.28,5.0,12.193,,,,NaN,,,,0 / 0,1675,2020-10-20 19:36:33:966
4.6512,-7.5913,1.1863,6.2617,-7.5129,0.7198,-1.6797,0.0046,0.4586,-8.99,2.91,-37.1,2.0,-17.81,94.39,-10.79,348.91,50.51,-83.28,5.0,12.193,,,,NaN,,,,0 / 0,1681,2020-10-20 19:36:33:972
4.6512,-7.5913,1.1863,6.2617,-7.5129,0.7198,-1.6797,0.0046,0.4586,-8.99,2.91,-37.1,2.0,-17.81,94.39,-10.79,348.91,50.51,-83.28,5.0,12.193,,,,NaN,,,,0 / 0,1685,2020-10-20 19:36:33:976
4.6512,-7.5913,1.1863,6.2617,-7.5129,0.7198,-1.6797,0.0046,0.4586,-2.41,-2.9,-30.84,2.0,-17.81,94.39,-10.79,348.91,50.51,-83.28,5.0,12.193,,,,NaN,,,,0 / 0,1691,2020-10-20 19:36:33:982
4.6512,-7.5913,1.1863,6.2617,-7.5129,0.7198,-1.6797,0.0046,0.4586,-2.41,-2.9,-30.84,2.0,-17.81,94.39,-10.79,348.91,50.51,-83.28,5.0,12.193,,,,NaN,,,,0 / 0,1696,2020-10-20 19:36:33:987
4.4574,-7.6775,1.2868,6.3372,-7.4503,0.71,-1.9136,-0.1291,0.589,2.18,-6.33,-25.59,2.0,-17.21,93.94,-13.19,348.91,50.51,-83.28,5.0,12.193,,,,NaN,,,,0 / 0,1701,2020-10-20 19:36:33:992
4.4574,-7.6775,1.2868,6.3372,-7.4503,0.71,-1.9136,-0.1291,0.589,2.18,-6.33,-25.59,2.0,-17.21,93.94,-13.19,348.91,50.51,-83.28,5.0,12.193,,,,NaN,,,,0 / 0,1706,2020-10-20 19:36:33:997
4.3928,-7.6895,0.9374,6.3766,-7.4168,0.7072,-2.048,-0.198,0.2232,5.85,-8.57,-19.81,2.0,-17.21,93.94,-13.19,348.91,50.51,-83.28,5.0,12.193,,,,NaN,,,,0 / 0,1711,2020-10-20 19:36:34:002
4.3928,-7.6895,0.9374,6.3766,-7.4168,0.7072,-2.048,-0.198,0.2232,5.85,-8.57,-19.81,2.0,-19.01,92.44,-13.49,346.42,49.14,-83.67,5.0,12.193,,,,NaN,,,,0 / 0,1716,2020-10-20 19:36:34:007
4.3928,-7.6895,0.9374,6.3766,-7.4168,0.7072,-2.048,-0.198,0.2232,5.85,-8.57,-19.81,2.0,-19.01,92.44,-13.49,346.42,49.14,-83.67,5.0,12.193,,,,NaN,,,,0 / 0,1720,2020-10-20 19:36:34:011
4.6632,-7.5459,0.6383,6.4004,-7.3964,0.7054,-1.7988,-0.0783,-0.0738,8.2,-11.02,-11.45,2.0,-19.01,92.44,-13.49,346.42,49.14,-83.67,5.0,12.193,,,,NaN,,,,0 / 0,1725,2020-10-20 19:36:34:016
4.6632,-7.5459,0.6383,6.4004,-7.3964,0.7054,-1.7988,-0.0783,-0.0738,8.2,-11.02,-11.45,2.0,-19.01,92.44,-13.49,346.42,49.14,-83.67,5.0,12.193,,,,NaN,,,,0 / 0,1730,2020-10-20 19:36:34:021
4.6632,-7.5459,0.6383,6.4004,-7.3964,0.7054,-1.7988,-0.0783,-0.0738,8.44,-11.93,-7.74,2.0,-18.71,93.49,-12.44,346.42,49.14,-83.67,5.0,12.193,,,,NaN,,,,0 / 0,1736,2020-10-20 19:36:34:027
5.0748,-7.5052,0.4445,6.4139,-7.3852,0.7011,-1.3984,-0.0517,-0.2631,8.44,-11.93,-7.74,2.0,-18.71,93.49,-12.44,346.42,49.14,-83.67,5.0,12.193,,,,NaN,,,,0 / 0,1741,2020-10-20 19:36:34:032
5.0748,-7.5052,0.4445,6.4139,-7.3852,0.7011,-1.3984,-0.0517,-0.2631,7.78,-12.42,-5.36,2.0,-18.71,93.49,-12.44,346.42,49.14,-83.67,5.0,12.193,,,,NaN,,,,0 / 0,1745,2020-10-20 19:36:34:036
5.4935,-7.6129,0.3823,6.4221,-7.3787,0.6934,-0.9864,-0.1678,-0.3174,7.78,-12.42,-5.36,2.0,-18.71,93.49,-12.44,346.42,49.14,-83.67,5.0,12.193,,,,NaN,,,,0 / 0,1751,2020-10-20 19:36:34:042
5.4935,-7.6129,0.3823,6.4221,-7.3787,0.6934,-0.9864,-0.1678,-0.3174,7.78,-12.42,-5.36,2.0,-16.61,94.09,-12.59,347.02,48.8,-83.84,5.0,12.193,,,,NaN,,,,0 / 0,1755,2020-10-20 19:36:34:046
5.4935,-7.6129,0.3823,6.4221,-7.3787,0.6934,-0.9864,-0.1678,-0.3174,7.78,-12.42,-5.36,2.0,-16.61,94.09,-12.59,347.02,48.8,-83.84,5.0,12.193,,,,NaN,,,,0 / 0,1760,2020-10-20 19:36:34:051
5.4935,-7.6129,0.3823,6.4221,-7.3787,0.6934,-0.9864,-0.1678,-0.3174,6.34,-12.6,-3.57,2.0,-16.61,94.09,-12.59,347.02,48.8,-83.84,5.0,12.193,,,,NaN,,,,0 / 0,1765,2020-10-20 19:36:34:056
5.7663,-7.6847,0.4014,6.4288,-7.374,0.6829,-0.7194,-0.2454,-0.2875,6.34,-12.6,-3.57,2.0,-16.61,94.09,-12.59,347.02,48.8,-83.84,5.0,12.193,,,,NaN,,,,0 / 0,1770,2020-10-20 19:36:34:061
5.7663,-7.6847,0.4014,6.4288,-7.374,0.6829,-0.7194,-0.2454,-0.2875,6.34,-12.6,-3.57,2.0,-17.96,94.69,-12.44,347.02,48.8,-83.84,5.0,12.193,,,,NaN,,,,0 / 0,1776,2020-10-20 19:36:34:067
5.8931,-7.7086,0.4349,6.4351,-7.3696,0.67,-0.5984,-0.2745,-0.2409,4.14,-12.14,-3.29,2.0,-17.96,94.69,-12.44,347.02,48.8,-83.84,5.0,12.193,,,,NaN,,,,0 / 0,1780,2020-10-20 19:36:34:071
5.8931,-7.7086,0.4349,6.4351,-7.3696,0.67,-0.5984,-0.2745,-0.2409,4.14,-12.14,-3.29,2.0,-17.96,94.69,-12.44,347.02,48.8,-83.84,5.0,12.193,,,,NaN,,,,0 / 0,1786,2020-10-20 19:36:34:077
5.8931,-7.7086,0.4349,6.4351,-7.3696,0.67,-0.5984,-0.2745,-0.2409,4.14,-12.14,-3.29,2.0,-17.96,94.69,-12.44,347.02,48.8,-83.84,5.0,12.193,,,,NaN,,,,0 / 0,1790,2020-10-20 19:36:34:081
5.8931,-7.7086,0.4349,6.4351,-7.3696,0.67,-0.5984,-0.2745,-0.2409,4.14,-12.14,-3.29,2.0,-17.96,94.69,-12.44,347.02,48.8,-83.84,5.0,12.193,,,,NaN,,,,0 / 0,1795,2020-10-20 19:36:34:086
6.0319,-7.8019,0.4852,6.4395,-7.3666,0.6607,-0.4639,-0.371,-0.1813,2.42,-10.95,-3.43,2.0,-18.56,94.84,-11.54,348.14,48.69,-84.14,5.0,12.193,,,,NaN,,,,0 / 0,1801,2020-10-20 19:36:34:092
6.0319,-7.8019,0.4852,6.4395,-7.3666,0.6607,-0.4639,-0.371,-0.1813,2.42,-10.95,-3.43,2.0,-18.56,94.84,-11.54,348.14,48.69,-84.14,5.0,12.193,,,,NaN,,,,0 / 0,1805,2020-10-20 19:36:34:096
6.2448,-7.9024,0.5809,6.4493,-7.3596,0.6422,-0.2612,-0.4781,-0.067,-0.1,-8.19,-4.38,2.0,-18.56,94.84,-11.54,348.14,48.69,-84.14,5.0,12.193,,,,NaN,,,,0 / 0,1811,2020-10-20 19:36:34:102
6.2448,-7.9024,0.5809,6.4493,-7.3596,0.6422,-0.2612,-0.4781,-0.067,-0.1,-8.19,-4.38,2.0,-19.46,92.44,-10.94,348.14,48.69,-84.14,5.0,12.193,,,,NaN,,,,0 / 0,1815,2020-10-20 19:36:34:106
6.2448,-7.9024,0.5809,6.4493,-7.3596,0.6422,-0.2612,-0.4781,-0.067,-1.32,-7.14,-5.43,2.0,-19.46,92.44,-10.94,348.14,48.69,-84.14,5.0,12.193,,,,NaN,,,,0 / 0,1821,2020-10-20 19:36:34:112
6.4171,-7.9646,0.7962,6.4593,-7.352,0.6286,-0.0997,-0.5472,0.1621,-1.32,-7.14,-5.43,2.0,-19.46,92.44,-10.94,348.14,48.69,-84.14,5.0,12.193,,,,NaN,,,,0 / 0,1826,2020-10-20 19:36:34:117
6.4171,-7.9646,0.7962,6.4593,-7.352,0.6286,-0.0997,-0.5472,0.1621,-2.06,-5.35,-6.93,2.0,-19.46,92.44,-10.94,348.14,48.69,-84.14,5.0,12.193,,,,NaN,,,,0 / 0,1831,2020-10-20 19:36:34:122
6.4171,-7.9646,0.7962,6.4593,-7.352,0.6286,-0.0997,-0.5472,0.1621,-2.06,-5.35,-6.93,2.0,-19.01,93.94,-10.64,349.09,48.56,-84.44,5.0,12.193,,,,NaN,,,,0 / 0,1835,2020-10-20 19:36:34:126
6.4554,-7.9694,0.8728,6.4733,-7.3405,0.6187,-0.0765,-0.5625,0.2485,-2.06,-5.35,-6.93,2.0,-19.01,93.94,-10.64,349.09,48.56,-84.44,5.0,12.193,,,,NaN,,,,0 / 0,1840,2020-10-20 19:36:34:131
6.4554,-7.9694,0.8728,6.4733,-7.3405,0.6187,-0.0765,-0.5625,0.2485,-2.69,-0.7,-9.56,2.0,-19.01,93.94,-10.64,349.09,48.56,-84.44,5.0,12.193,,,,NaN,,,,0 / 0,1845,2020-10-20 19:36:34:136
6.4554,-7.9694,0.8728,6.4733,-7.3405,0.6187,-0.0765,-0.5625,0.2485,-2.69,-0.7,-9.56,2.0,-19.01,93.94,-10.64,349.09,48.56,-84.44,5.0,12.193,,,,NaN,,,,0 / 0,1850,2020-10-20 19:36:34:141
6.2401,-8.0268,0.691,6.4905,-7.3257,0.6156,-0.3099,-0.6341,0.0697,-2.69,-0.7,-9.56,2.0,-19.01,92.14,-11.99,349.09,48.56,-84.44,5.0,12.193,,,,NaN,,,,0 / 0,1855,2020-10-20 19:36:34:146
6.2401,-8.0268,0.691,6.4905,-7.3257,0.6156,-0.3099,-0.6341,0.0697,-5.07,6.79,-11.17,2.0,-19.01,92.14,-11.99,349.09,48.56,-84.44,5.0,12.193,,,,NaN,,,,0 / 0,1860,2020-10-20 19:36:34:151
6.2401,-8.0268,0.691,6.4905,-7.3257,0.6156,-0.3099,-0.6341,0.0697,-5.07,6.79,-11.17,2.0,-19.01,92.14,-11.99,349.09,48.56,-84.44,5.0,12.193,,,,NaN,,,,0 / 0,1865,2020-10-20 19:36:34:156
6.0151,-7.9862,1.0571,6.5077,-7.3099,0.6209,-0.5527,-0.6088,0.4304,-5.07,6.79,-11.17,2.0,-19.01,92.14,-11.99,349.09,48.56,-84.44,5.0,12.193,,,,NaN,,,,0 / 0,1870,2020-10-20 19:36:34:161
6.0151,-7.9862,1.0571,6.5077,-7.3099,0.6209,-0.5527,-0.6088,0.4304,-5.94,12.43,-10.92,2.0,-19.91,93.34,-12.29,347.76,48.19,-84.55,5.0,12.193,,,,NaN,,,,0 / 0,1875,2020-10-20 19:36:34:166
6.0151,-7.9862,1.0571,6.5077,-7.3099,0.6209,-0.5527,-0.6088,0.4304,-5.94,12.43,-10.92,2.0,-19.91,93.34,-12.29,347.76,48.19,-84.55,5.0,12.193,,,,NaN,,,,0 / 0,1881,2020-10-20 19:36:34:172
5.7878,-7.912,1.1384,6.5221,-7.2958,0.6357,-0.7944,-0.5488,0.4968,-5.94,12.43,-10.92,2.0,-19.91,93.34,-12.29,347.76,48.19,-84.55,5.0,12.193,,,,NaN,,,,0 / 0,1886,2020-10-20 19:36:34:177
5.7878,-7.912,1.1384,6.5221,-7.2958,0.6357,-0.7944,-0.5488,0.4968,-4.19,16.66,-8.79,2.0,-19.91,93.34,-12.29,347.76,48.19,-84.55,5.0,12.193,,,,NaN,,,,0 / 0,1890,2020-10-20 19:36:34:181
5.7878,-7.912,1.1384,6.5221,-7.2958,0.6357,-0.7944,-0.5488,0.4968,-4.19,16.66,-8.79,2.0,-19.46,93.94,-11.69,347.76,48.19,-84.55,5.0,12.193,,,,NaN,,,,0 / 0,1895,2020-10-20 19:36:34:186
5.326,-7.8952,1.0427,6.5297,-7.2869,0.6596,-1.2632,-0.5419,0.3771,-2.44,17.4,-6.02,2.0,-19.46,93.94,-11.69,347.76,48.19,-84.55,5.0,12.193,,,,NaN,,,,0 / 0,1900,2020-10-20 19:36:34:191
5.326,-7.8952,1.0427,6.5297,-7.2869,0.6596,-1.2632,-0.5419,0.3771,-2.44,17.4,-6.02,2.0,-19.46,93.94,-11.69,347.76,48.19,-84.55,5.0,12.193,,,,NaN,,,,0 / 0,1905,2020-10-20 19:36:34:196
5.326,-7.8952,1.0427,6.5297,-7.2869,0.6596,-1.2632,-0.5419,0.3771,-2.44,17.4,-6.02,2.0,-19.46,93.94,-11.69,347.76,48.19,-84.55,5.0,12.193,,,,NaN,,,,0 / 0,1910,2020-10-20 19:36:34:201
5.1035,-7.8211,0.9302,6.5289,-7.286,0.6772,-1.484,-0.4698,0.247,-0.62,15.82,-1.93,2.0,-19.01,93.49,-12.74,346.92,47.98,-84.08,5.0,12.193,,,,NaN,,,,0 / 0,1916,2020-10-20 19:36:34:207
5.1035,-7.8211,0.9302,6.5289,-7.286,0.6772,-1.484,-0.4698,0.247,1.72,9.98,4.79,2.0,-19.01,93.49,-12.74,346.92,47.98,-84.08,5.0,12.193,,,,NaN,,,,0 / 0,1921,2020-10-20 19:36:34:212
5.1035,-7.8211,0.9302,6.5289,-7.286,0.6772,-1.484,-0.4698,0.247,1.72,9.98,4.79,2.0,-19.01,93.49,-12.74,346.92,47.98,-84.08,5.0,12.193,,,,NaN,,,,0 / 0,1925,2020-10-20 19:36:34:216
4.9599,-7.6703,0.7221,6.512,-7.2984,0.7054,-1.6243,-0.3374,0.0546,1.72,9.98,4.79,2.0,-19.01,93.49,-12.74,346.92,47.98,-84.08,5.0,12.193,,,,NaN,,,,0 / 0,1930,2020-10-20 19:36:34:221
4.9599,-7.6703,0.7221,6.512,-7.2984,0.7054,-1.6243,-0.3374,0.0546,3.26,4.27,9.06,2.0,-19.76,94.24,-11.99,346.92,47.98,-84.08,5.0,12.193,,,,NaN,,,,0 / 0,1935,2020-10-20 19:36:34:226
5.2183,-7.6057,0.7077,6.4888,-7.3181,0.7146,-1.3242,-0.227,-0.0128,4.91,-2.38,11.97,2.0,-19.76,94.24,-11.99,346.92,47.98,-84.08,5.0,9.321,,,,NaN,,,,0 / 0,1948,2020-10-20 19:36:34:239
5.2183,-7.6057,0.7077,6.4888,-7.3181,0.7146,-1.3242,-0.227,-0.0128,4.91,-2.38,11.97,2.0,-19.76,94.24,-11.99,346.92,47.98,-84.08,5.0,9.321,,,,NaN,,,,0 / 0,1949,2020-10-20 19:36:34:240
5.2183,-7.6057,0.7077,6.4888,-7.3181,0.7146,-1.3242,-0.227,-0.0128,4.91,-2.38,11.97,2.0,-19.76,94.24,-11.99,346.92,47.98,-84.08,5.0,9.321,,,,NaN,,,,0 / 0,1950,2020-10-20 19:36:34:241
5.2183,-7.6057,0.7077,6.4888,-7.3181,0.7146,-1.3242,-0.227,-0.0128,4.91,-2.38,11.97,2.0,-17.66,94.69,-11.69,348.49,48.27,-83.72,5.0,9.321,,,,NaN,,,,0 / 0,1956,2020-10-20 19:36:34:247
5.4026,-7.4023,0.7245,6.4528,-7.3503,0.7104,-1.1013,0.0062,0.0085,8.06,-12.18,14.59,2.0,-17.66,94.69,-11.69,348.49,48.27,-83.72,5.0,9.321,,,,NaN,,,,0 / 0,1961,2020-10-20 19:36:34:252
5.4026,-7.4023,0.7245,6.4528,-7.3503,0.7104,-1.1013,0.0062,0.0085,8.06,-12.18,14.59,2.0,-17.66,94.69,-11.69,348.49,48.27,-83.72,5.0,9.321,,,,NaN,,,,0 / 0,1966,2020-10-20 19:36:34:257
5.4026,-7.4023,0.7245,6.4528,-7.3503,0.7104,-1.1013,0.0062,0.0085,8.06,-12.18,14.59,2.0,-17.66,94.69,-11.69,348.49,48.27,-83.72,5.0,9.321,,,,NaN,,,,0 / 0,1971,2020-10-20 19:36:34:262
5.4026,-7.4023,0.7245,6.4528,-7.3503,0.7104,-1.1013,0.0062,0.0085,10.65,-20.54,16.52,2.0,-17.66,94.69,-11.69,348.49,48.27,-83.72,5.0,9.321,,,,NaN,,,,0 / 0,1975,2020-10-20 19:36:34:266
5.5079,-7.2587,0.6551,6.4237,-7.377,0.6969,-0.9648,0.1745,-0.0471,10.65,-20.54,16.52,2.0,-18.86,93.04,-11.84,348.49,48.27,-83.72,5.0,9.321,,,,NaN,,,,0 / 0,1981,2020-10-20 19:36:34:272
5.5079,-7.2587,0.6551,6.4237,-7.377,0.6969,-0.9648,0.1745,-0.0471,11.77,-25.48,18.02,2.0,-18.86,93.04,-11.84,348.49,48.27,-83.72,5.0,9.321,,,,NaN,,,,0 / 0,1985,2020-10-20 19:36:34:276
5.5079,-7.2587,0.6551,6.4237,-7.377,0.6969,-0.9648,0.1745,-0.0471,11.77,-25.48,18.02,2.0,-18.86,93.04,-11.84,348.49,48.27,-83.72,5.0,9.321,,,,NaN,,,,0 / 0,1990,2020-10-20 19:36:34:281
5.6371,-7.2755,0.5905,6.3928,-7.4056,0.6776,-0.8028,0.1845,-0.0922,11.77,-25.48,18.02,2.0,-18.71,93.49,-10.94,348.96,49.04,-83.95,5.0,9.321,,,,NaN,,,,0 / 0,1996,2020-10-20 19:36:34:287
5.6371,-7.2755,0.5905,6.3928,-7.4056,0.6776,-0.8028,0.1845,-0.0922,11.8,-25.86,19.25,2.0,-18.71,93.49,-10.94,348.96,49.04,-83.95,5.0,9.321,,,,NaN,,,,0 / 0,2001,2020-10-20 19:36:34:292
5.6371,-7.2755,0.5905,6.3928,-7.4056,0.6776,-0.8028,0.1845,-0.0922,11.8,-25.86,19.25,2.0,-18.71,93.49,-10.94,348.96,49.04,-83.95,5.0,9.321,,,,NaN,,,,0 / 0,2005,2020-10-20 19:36:34:296
5.9697,-7.4932,0.6216,6.3483,-7.4461,0.6521,-0.4238,0.006,-0.0351,11.84,-24.88,20.16,2.0,-18.71,93.49,-10.94,348.96,49.04,-83.95,5.0,9.321,,,,NaN,,,,0 / 0,2010,2020-10-20 19:36:34:301
5.9697,-7.4932,0.6216,6.3483,-7.4461,0.6521,-0.4238,0.006,-0.0351,11.84,-24.88,20.16,2.0,-19.91,94.39,-10.04,348.96,49.04,-83.95,5.0,9.321,,,,NaN,,,,0 / 0,2015,2020-10-20 19:36:34:306
5.9697,-7.4932,0.6216,6.3483,-7.4461,0.6521,-0.4238,0.006,-0.0351,11.84,-24.88,20.16,2.0,-19.91,94.39,-10.04,348.96,49.04,-83.95,5.0,9.321,,,,NaN,,,,0 / 0,2021,2020-10-20 19:36:34:312
5.9697,-7.4932,0.6216,6.3483,-7.4461,0.6521,-0.4238,0.006,-0.0351,11.84,-24.88,20.16,2.0,-19.91,94.39,-10.04,348.96,49.04,-83.95,5.0,9.321,,,,NaN,,,,0 / 0,2026,2020-10-20 19:36:34:317
6.1635,-7.7541,0.6144,6.3107,-7.4792,0.6381,-0.192,-0.2218,-0.0282,11.87,-21.21,21.94,2.0,-19.91,94.39,-10.04,348.96,49.04,-83.95,5.0,9.321,,,,NaN,,,,0 / 0,2031,2020-10-20 19:36:34:322
6.1635,-7.7541,0.6144,6.3107,-7.4792,0.6381,-0.192,-0.2218,-0.0282,11.87,-21.21,21.94,2.0,-19.01,93.49,-10.64,348.62,49.7,-84.23,5.0,9.321,,,,NaN,,,,0 / 0,2035,2020-10-20 19:36:34:326
6.1635,-7.7541,0.6144,6.3107,-7.4792,0.6381,-0.192,-0.2218,-0.0282,11.98,-17.99,23.52,2.0,-19.01,93.49,-10.64,348.62,49.7,-84.23,5.0,9.321,,,,NaN,,,,0 / 0,2040,2020-10-20 19:36:34:331
6.3741,-7.8904,0.4206,6.255,-7.5267,0.6284,0.074,-0.3095,-0.2123,11.98,-17.99,23.52,2.0,-19.01,93.49,-10.64,348.62,49.7,-84.23,5.0,9.321,,,,NaN,,,,0 / 0,2045,2020-10-20 19:36:34:336
6.3741,-7.8904,0.4206,6.255,-7.5267,0.6284,0.074,-0.3095,-0.2123,11.24,-15.75,24.25,2.0,-19.01,93.49,-10.64,348.62,49.7,-84.23,5.0,9.321,,,,NaN,,,,0 / 0,2050,2020-10-20 19:36:34:341
6.3741,-7.8904,0.4206,6.255,-7.5267,0.6284,0.074,-0.3095,-0.2123,11.24,-15.75,24.25,2.0,-18.86,93.04,-10.04,348.62,49.7,-84.23,5.0,9.321,,,,NaN,,,,0 / 0,2056,2020-10-20 19:36:34:347
6.3741,-7.8904,0.4206,6.255,-7.5267,0.6284,0.074,-0.3095,-0.2123,11.24,-15.75,24.25,2.0,-18.86,93.04,-10.04,348.62,49.7,-84.23,5.0,9.321,,,,NaN,,,,0 / 0,2060,2020-10-20 19:36:34:351
6.654,-7.7971,0.2124,6.2111,-7.5633,0.6239,0.3973,-0.1784,-0.4161,9.53,-13.33,24.25,2.0,-18.86,93.04,-10.04,348.62,49.7,-84.23,5.0,9.321,,,,NaN,,,,0 / 0,2065,2020-10-20 19:36:34:356
6.654,-7.7971,0.2124,6.2111,-7.5633,0.6239,0.3973,-0.1784,-0.4161,9.53,-13.33,24.25,2.0,-18.86,93.04,-10.04,348.62,49.7,-84.23,5.0,9.321,,,,NaN,,,,0 / 0,2070,2020-10-20 19:36:34:361
6.654,-7.7971,0.2124,6.2111,-7.5633,0.6239,0.3973,-0.1784,-0.4161,5.57,-9.03,22.57,2.0,-18.86,93.04,-10.04,348.62,49.7,-84.23,5.0,9.321,,,,NaN,,,,0 / 0,2076,2020-10-20 19:36:34:367
6.8048,-7.4813,0.1956,6.1562,-7.6086,0.6173,0.6025,0.1842,-0.4262,5.57,-9.03,22.57,2.0,-18.56,93.64,-10.79,348.49,50.47,-84.26,5.0,9.321,,,,NaN,,,,0 / 0,2081,2020-10-20 19:36:34:372
6.8048,-7.4813,0.1956,6.1562,-7.6086,0.6173,0.6025,0.1842,-0.4262,2.53,-5.63,20.47,2.0,-18.56,93.64,-10.79,348.49,50.47,-84.26,5.0,9.321,,,,NaN,,,,0 / 0,2085,2020-10-20 19:36:34:376
6.8048,-7.4813,0.1956,6.1562,-7.6086,0.6173,0.6025,0.1842,-0.4262,2.53,-5.63,20.47,2.0,-18.56,93.64,-10.79,348.49,50.47,-84.26,5.0,9.321,,,,NaN,,,,0 / 0,2090,2020-10-20 19:36:34:381
6.8454,-7.4358,0.2411,6.1215,-7.6369,0.6118,0.6777,0.2588,-0.3753,-0.62,-1.71,18.09,2.0,-18.56,95.14,-10.79,348.49,50.47,-84.26,5.0,9.321,,,,NaN,,,,0 / 0,2096,2020-10-20 19:36:34:387
6.8454,-7.4358,0.2411,6.1215,-7.6369,0.6118,0.6777,0.2588,-0.3753,-0.62,-1.71,18.09,2.0,-18.56,95.14,-10.79,348.49,50.47,-84.26,5.0,9.321,,,,NaN,,,,0 / 0,2100,2020-10-20 19:36:34:391
6.7641,-7.4645,0.4373,6.0923,-7.6606,0.608,0.6253,0.2545,-0.1753,-4.72,4.62,14.84,2.0,-18.56,95.14,-10.79,348.49,50.47,-84.26,5.0,9.321,,,,NaN,,,,0 / 0,2105,2020-10-20 19:36:34:396
6.7641,-7.4645,0.4373,6.0923,-7.6606,0.608,0.6253,0.2545,-0.1753,-4.72,4.62,14.84,2.0,-18.56,95.14,-10.79,348.49,50.47,-84.26,5.0,9.321,,,,NaN,,,,0 / 0,2111,2020-10-20 19:36:34:402
6.7641,-7.4645,0.4373,6.0923,-7.6606,0.608,0.6253,0.2545,-0.1753,-6.05,8.54,12.95,2.0,-16.61,94.39,-10.04,349.53,51.37,-84.3,5.0,9.321,,,,NaN,,,,0 / 0,2116,2020-10-20 19:36:34:407
6.5798,-7.4789,0.6742,6.0675,-7.6802,0.6092,0.4658,0.2602,0.0603,-6.05,8.54,12.95,2.0,-16.61,94.39,-10.04,349.53,51.37,-84.3,5.0,9.321,,,,NaN,,,,0 / 0,2121,2020-10-20 19:36:34:412
6.5798,-7.4789,0.6742,6.0675,-7.6802,0.6092,0.4658,0.2602,0.0603,-6.05,8.54,12.95,2.0,-16.61,94.39,-10.04,349.53,51.37,-84.3,5.0,9.321,,,,NaN,,,,0 / 0,2126,2020-10-20 19:36:34:417
6.5798,-7.4789,0.6742,6.0675,-7.6802,0.6092,0.4658,0.2602,0.0603,-6.33,11.17,11.41,2.0,-16.61,94.39,-10.04,349.53,51.37,-84.3,5.0,9.321,,,,NaN,,,,0 / 0,2130,2020-10-20 19:36:34:421
6.52,-7.51,0.8273,6.0462,-7.6964,0.6162,0.4272,0.2457,0.2064,-6.33,11.17,11.41,2.0,-18.71,94.99,-10.94,349.53,51.37,-84.3,5.0,9.321,,,,NaN,,,,0 / 0,2135,2020-10-20 19:36:34:426
6.52,-7.51,0.8273,6.0462,-7.6964,0.6162,0.4272,0.2457,0.2064,-5.31,12.74,9.31,2.0,-18.71,94.99,-10.94,349.53,51.37,-84.3,5.0,9.321,,,,NaN,,,,0 / 0,2140,2020-10-20 19:36:34:431
6.52,-7.51,0.8273,6.0462,-7.6964,0.6162,0.4272,0.2457,0.2064,-5.31,12.74,9.31,2.0,-18.71,94.99,-10.94,349.53,51.37,-84.3,5.0,9.321,,,,NaN,,,,0 / 0,2145,2020-10-20 19:36:34:436
6.4195,-7.5172,0.8632,6.0287,-7.7091,0.6276,0.3442,0.2515,0.2307,-4.02,13.13,7.87,2.0,-18.71,94.99,-10.94,349.53,51.37,-84.3,5.0,9.321,,,,NaN,,,,0 / 0,2150,2020-10-20 19:36:34:441
6.4195,-7.5172,0.8632,6.0287,-7.7091,0.6276,0.3442,0.2515,0.2307,-4.02,13.13,7.87,2.0,-17.36,92.59,-10.79,348.03,51.82,-84.06,5.0,9.321,,,,NaN,,,,0 / 0,2155,2020-10-20 19:36:34:446
6.4195,-7.5172,0.8632,6.0287,-7.7091,0.6276,0.3442,0.2515,0.2307,-4.02,13.13,7.87,2.0,-17.36,92.59,-10.79,348.03,51.82,-84.06,5.0,9.321,,,,NaN,,,,0 / 0,2160,2020-10-20 19:36:34:451
6.4028,-7.5913,0.8609,6.0191,-7.7159,0.6369,0.337,0.1843,0.219,-2.72,12.25,6.54,2.0,-17.36,92.59,-10.79,348.03,51.82,-84.06,5.0,9.321,,,,NaN,,,,0 / 0,2165,2020-10-20 19:36:34:456
6.4028,-7.5913,0.8609,6.0191,-7.7159,0.6369,0.337,0.1843,0.219,-2.72,12.25,6.54,2.0,-17.36,92.59,-10.79,348.03,51.82,-84.06,5.0,9.321,,,,NaN,,,,0 / 0,2171,2020-10-20 19:36:34:462
6.4028,-7.5913,0.8609,6.0191,-7.7159,0.6369,0.337,0.1843,0.219,-2.72,12.25,6.54,2.0,-17.36,92.59,-10.79,348.03,51.82,-84.06,5.0,9.321,,,,NaN,,,,0 / 0,2175,2020-10-20 19:36:34:466
6.2616,-7.7206,0.6981,6.007,-7.7242,0.6513,0.2079,0.0636,0.0418,-1.25,11.1,5.42,2.0,-18.86,94.09,-10.79,348.03,51.82,-84.06,5.0,9.321,,,,NaN,,,,0 / 0,2181,2020-10-20 19:36:34:472
6.2616,-7.7206,0.6981,6.007,-7.7242,0.6513,0.2079,0.0636,0.0418,-1.25,11.1,5.42,2.0,-18.86,94.09,-10.79,348.03,51.82,-84.06,5.0,9.321,,,,NaN,,,,0 / 0,2185,2020-10-20 19:36:34:476
6.2616,-7.7206,0.6981,6.007,-7.7242,0.6513,0.2079,0.0636,0.0418,-1.25,11.1,5.42,2.0,-18.86,94.09,-10.79,348.03,51.82,-84.06,5.0,9.321,,,,NaN,,,,0 / 0,2190,2020-10-20 19:36:34:481
6.1731,-7.7588,0.7388,5.9903,-7.7356,0.6686,0.136,0.0372,0.065,-1.11,8.89,6.19,2.0,-18.56,93.34,-10.79,347.94,52.07,-83.63,5.0,9.321,,,,NaN,,,,0 / 0,2195,2020-10-20 19:36:34:486
6.1731,-7.7588,0.7388,5.9903,-7.7356,0.6686,0.136,0.0372,0.065,-1.11,8.89,6.19,2.0,-18.56,93.34,-10.79,347.94,52.07,-83.63,5.0,9.321,,,,NaN,,,,0 / 0,2200,2020-10-20 19:36:34:491
6.1731,-7.7588,0.7388,5.9903,-7.7356,0.6686,0.136,0.0372,0.065,-1.11,8.89,6.19,2.0,-18.56,93.34,-10.79,347.94,52.07,-83.63,5.0,9.321,,,,NaN,,,,0 / 0,2206,2020-10-20 19:36:34:497
6.2401,-7.8043,0.868,5.9758,-7.7459,0.6789,0.2174,0.0024,0.1838,-0.83,7.14,7.24,2.0,-18.56,93.34,-10.79,347.94,52.07,-83.63,5.0,9.321,,,,NaN,,,,0 / 0,2211,2020-10-20 19:36:34:502
6.2401,-7.8043,0.868,5.9758,-7.7459,0.6789,0.2174,0.0024,0.1838,-0.83,7.14,7.24,2.0,-18.56,93.34,-10.79,347.94,52.07,-83.63,5.0,9.321,,,,NaN,,,,0 / 0,2215,2020-10-20 19:36:34:506
6.2401,-7.8043,0.868,5.9758,-7.7459,0.6789,0.2174,0.0024,0.1838,0.18,5.15,8.05,2.0,-17.96,94.69,-11.24,347.94,52.07,-83.63,5.0,9.321,,,,NaN,,,,0 / 0,2221,2020-10-20 19:36:34:512
6.2401,-7.8043,0.868,5.9758,-7.7459,0.6789,0.2174,0.0024,0.1838,0.18,5.15,8.05,2.0,-17.96,94.69,-11.24,347.94,52.07,-83.63,5.0,9.321,,,,NaN,,,,0 / 0,2225,2020-10-20 19:36:34:516
6.4028,-7.9072,1.0092,5.9545,-7.7612,0.6911,0.4008,-0.084,0.3126,0.18,5.15,8.05,2.0,-17.96,94.69,-11.24,347.94,52.07,-83.63,5.0,9.321,,,,NaN,,,,0 / 0,2230,2020-10-20 19:36:34:521
6.4028,-7.9072,1.0092,5.9545,-7.7612,0.6911,0.4008,-0.084,0.3126,1.27,4.03,8.29,2.0,-17.96,94.69,-11.24,347.94,52.07,-83.63,5.0,9.321,,,,NaN,,,,0 / 0,2235,2020-10-20 19:36:34:526
6.4028,-7.9072,1.0092,5.9545,-7.7612,0.6911,0.4008,-0.084,0.3126,1.27,4.03,8.29,2.0,-16.61,93.34,-12.29,346.78,52.32,-83.38,5.0,9.321,,,,NaN,,,,0 / 0,2241,2020-10-20 19:36:34:532
6.6349,-7.8546,1.2557,5.9387,-7.7723,0.7023,0.6478,-0.019,0.5476,3.33,2.8,8.15,2.0,-16.61,93.34,-12.29,346.78,52.32,-83.38,5.0,9.321,,,,NaN,,,,0 / 0,2245,2020-10-20 19:36:34:536
6.6349,-7.8546,1.2557,5.9387,-7.7723,0.7023,0.6478,-0.019,0.5476,3.33,2.8,8.15,2.0,-16.61,93.34,-12.29,346.78,52.32,-83.38,5.0,9.321,,,,NaN,,,,0 / 0,2250,2020-10-20 19:36:34:541
6.9364,-7.711,1.203,5.9387,-7.7723,0.7023,0.6478,-0.019,0.5476,3.33,2.8,8.15,2.0,-16.61,93.34,-12.29,346.78,52.32,-83.38,5.0,9.321,,,,NaN,,,,0 / 0,2256,2020-10-20 19:36:34:547
6.9364,-7.711,1.203,5.9271,-7.7798,0.7178,0.9599,0.1336,0.4792,7.43,0.21,5.91,2.0,-15.41,92.74,-11.24,346.78,52.32,-83.38,5.0,9.321,,,,NaN,,,,0 / 0,2264,2020-10-20 19:36:34:555
6.9364,-7.711,1.203,5.9271,-7.7798,0.7178,0.9599,0.1336,0.4792,7.43,0.21,5.91,2.0,-15.41,92.74,-11.24,346.78,52.32,-83.38,5.0,5.519,,,,NaN,,,,0 / 0,2265,2020-10-20 19:36:34:556
6.9316,-7.6416,0.9829,5.9271,-7.7798,0.7178,0.9599,0.1336,0.4792,10.33,-2.03,1.61,2.0,-15.41,92.74,-11.24,346.78,52.32,-83.38,5.0,5.519,,,,NaN,,,,0 / 0,2270,2020-10-20 19:36:34:561
6.9316,-7.6416,0.9829,5.9271,-7.7798,0.7178,0.9599,0.1336,0.4792,10.33,-2.03,1.61,2.0,-15.41,92.74,-11.24,346.78,52.32,-83.38,5.0,5.519,,,,NaN,,,,0 / 0,2275,2020-10-20 19:36:34:566
6.9316,-7.6416,0.9829,5.9245,-7.7795,0.7415,0.8655,0.2116,0.1513,10.33,-2.03,1.61,2.0,-17.21,96.79,-10.64,348.83,52.49,-82.87,5.0,5.519,,,,NaN,,,,0 / 0,2280,2020-10-20 19:36:34:571
6.7402,-7.644,0.7508,5.9245,-7.7795,0.7415,0.8655,0.2116,0.1513,10.26,-2.8,-0.77,2.0,-17.21,96.79,-10.64,348.83,52.49,-82.87,5.0,5.519,,,,NaN,,,,0 / 0,2286,2020-10-20 19:36:34:577
6.7402,-7.644,0.7508,5.9245,-7.7795,0.7415,0.8655,0.2116,0.1513,10.26,-2.8,-0.77,2.0,-17.21,96.79,-10.64,348.83,52.49,-82.87,5.0,5.519,,,,NaN,,,,0 / 0,2291,2020-10-20 19:36:34:582
6.7402,-7.644,0.7508,5.9301,-7.7738,0.7566,0.6869,0.1852,-0.0196,9.11,-2.45,-2.1,2.0,-17.81,93.64,-10.79,348.83,52.49,-82.87,5.0,5.519,,,,NaN,,,,0 / 0,2296,2020-10-20 19:36:34:587
6.52,-7.6392,0.6216,5.9301,-7.7738,0.7566,0.6869,0.1852,-0.0196,9.11,-2.45,-2.1,2.0,-17.81,93.64,-10.79,348.83,52.49,-82.87,5.0,5.519,,,,NaN,,,,0 / 0,2300,2020-10-20 19:36:34:591
6.52,-7.6392,0.6216,5.9301,-7.7738,0.7566,0.6869,0.1852,-0.0196,6.34,1.4,-2.87,2.0,-17.81,93.64,-10.79,348.83,52.49,-82.87,5.0,5.519,,,,NaN,,,,0 / 0,2305,2020-10-20 19:36:34:596
6.52,-7.6392,0.6216,5.9393,-7.7649,0.7751,0.4569,0.1578,-0.1891,6.34,1.4,-2.87,2.0,-17.81,93.64,-10.79,348.83,52.49,-82.87,5.0,5.519,,,,NaN,,,,0 / 0,2311,2020-10-20 19:36:34:602
6.4171,-7.6823,0.6096,5.9393,-7.7649,0.7751,0.4569,0.1578,-0.1891,4.0,5.18,-2.56,2.0,-18.11,94.09,-10.34,349.82,52.35,-82.56,5.0,5.519,,,,NaN,,,,0 / 0,2315,2020-10-20 19:36:34:606
6.4171,-7.6823,0.6096,5.9393,-7.7649,0.7751,0.4569,0.1578,-0.1891,4.0,5.18,-2.56,2.0,-18.11,94.09,-10.34,349.82,52.35,-82.56,5.0,5.519,,,,NaN,,,,0 / 0,2320,2020-10-20 19:36:34:611
6.2999,-7.6655,0.7149,5.9435,-7.7602,0.7908,0.3042,0.1628,-0.0829,2.11,8.33,-1.82,2.0,-18.11,94.09,-10.34,349.82,52.35,-82.56,5.0,5.519,,,,NaN,,,,0 / 0,2326,2020-10-20 19:36:34:617
6.2999,-7.6655,0.7149,5.9435,-7.7602,0.7908,0.3042,0.1628,-0.0829,2.11,8.33,-1.82,2.0,-18.11,94.09,-10.34,349.82,52.35,-82.56,5.0,5.519,,,,NaN,,,,0 / 0,2330,2020-10-20 19:36:34:621
6.2999,-7.6655,0.7149,5.9435,-7.7602,0.7908,0.3042,0.1628,-0.0829,2.11,8.33,-1.82,2.0,-18.11,94.09,-10.34,349.82,52.35,-82.56,5.0,5.519,,,,NaN,,,,0 / 0,2335,2020-10-20 19:36:34:626
6.2999,-7.6655,0.7149,5.9435,-7.7602,0.7908,0.3042,0.1628,-0.0829,0.57,11.27,-0.49,2.0,-18.86,94.39,-12.29,349.82,52.35,-82.56,5.0,5.519,,,,NaN,,,,0 / 0,2341,2020-10-20 19:36:34:632
6.2999,-7.6655,0.7149,5.9435,-7.7602,0.7908,0.3042,0.1628,-0.0829,0.57,11.27,-0.49,2.0,-18.86,94.39,-12.29,349.82,52.35,-82.56,5.0,5.519,,,,NaN,,,,0 / 0,2345,2020-10-20 19:36:34:636
6.2975,-7.6918,0.8824,5.9439,-7.7574,0.8147,0.3012,0.1339,0.0605,0.29,11.83,0.24,2.0,-18.86,94.39,-12.29,349.82,52.35,-82.56,5.0,5.519,,,,NaN,,,,0 / 0,2351,2020-10-20 19:36:34:642
6.2975,-7.6918,0.8824,5.9439,-7.7574,0.8147,0.3012,0.1339,0.0605,0.29,11.83,0.24,2.0,-18.86,94.39,-12.29,349.82,52.35,-82.56,5.0,5.519,,,,NaN,,,,0 / 0,2356,2020-10-20 19:36:34:647
6.3047,-7.6655,1.014,5.9414,-7.7572,0.8336,0.3107,0.1603,0.173,0.71,11.38,0.73,2.0,-16.16,94.99,-10.64,348.88,52.28,-82.2,5.0,5.519,,,,NaN,,,,0 / 0,2360,2020-10-20 19:36:34:651
6.3047,-7.6655,1.014,5.9414,-7.7572,0.8336,0.3107,0.1603,0.173,0.71,11.38,0.73,2.0,-16.16,94.99,-10.64,348.88,52.28,-82.2,5.0,5.519,,,,NaN,,,,0 / 0,2365,2020-10-20 19:36:34:656
6.3047,-7.6655,1.014,5.9414,-7.7572,0.8336,0.3107,0.1603,0.173,0.71,11.38,0.73,2.0,-16.16,94.99,-10.64,348.88,52.28,-82.2,5.0,5.519,,,,NaN,,,,0 / 0,2370,2020-10-20 19:36:34:661
6.3047,-7.6655,1.014,5.9414,-7.7572,0.8336,0.3107,0.1603,0.173,0.71,11.38,0.73,2.0,-16.16,94.99,-10.64,348.88,52.28,-82.2,5.0,5.519,,,,NaN,,,,0 / 0,2375,2020-10-20 19:36:34:666
6.264,-7.6703,0.9637,5.9377,-7.7573,0.8591,0.2736,0.1558,0.0971,2.77,8.75,0.76,2.0,-16.31,95.14,-10.34,348.88,52.28,-82.2,5.0,5.519,,,,NaN,,,,0 / 0,2380,2020-10-20 19:36:34:671
6.264,-7.6703,0.9637,5.9377,-7.7573,0.8591,0.2736,0.1558,0.0971,2.77,8.75,0.76,2.0,-16.31,95.14,-10.34,348.88,52.28,-82.2,5.0,5.519,,,,NaN,,,,0 / 0,2385,2020-10-20 19:36:34:676
6.264,-7.6703,0.9637,5.9377,-7.7573,0.8591,0.2736,0.1558,0.0971,2.77,8.75,0.76,2.0,-16.31,95.14,-10.34,348.88,52.28,-82.2,5.0,5.519,,,,NaN,,,,0 / 0,2391,2020-10-20 19:36:34:682
6.1635,-7.7229,0.8561,5.9354,-7.7572,0.8761,0.1753,0.1032,-0.0279,3.4,6.23,0.87,2.0,-16.31,95.14,-10.34,348.88,52.28,-82.2,5.0,5.519,,,,NaN,,,,0 / 0,2395,2020-10-20 19:36:34:686
6.1635,-7.7229,0.8561,5.9354,-7.7572,0.8761,0.1753,0.1032,-0.0279,3.4,6.23,0.87,2.0,-17.81,94.09,-11.54,347.6,52.28,-81.6,5.0,5.519,,,,NaN,,,,0 / 0,2400,2020-10-20 19:36:34:691
6.1133,-7.711,0.8728,5.9319,-7.7584,0.8894,0.1287,0.1163,-0.0245,3.02,3.85,1.96,2.0,-17.81,94.09,-11.54,347.6,52.28,-81.6,5.0,5.519,,,,NaN,,,,0 / 0,2406,2020-10-20 19:36:34:697
6.1133,-7.711,0.8728,5.9319,-7.7584,0.8894,0.1287,0.1163,-0.0245,3.02,3.85,1.96,2.0,-17.81,94.09,-11.54,347.6,52.28,-81.6,5.0,5.519,,,,NaN,,,,0 / 0,2410,2020-10-20 19:36:34:701
6.1133,-7.711,0.8728,5.9319,-7.7584,0.8894,0.1287,0.1163,-0.0245,3.02,3.85,1.96,2.0,-17.81,94.09,-11.54,347.6,52.28,-81.6,5.0,5.519,,,,NaN,,,,0 / 0,2415,2020-10-20 19:36:34:706
6.118,-7.7277,0.9566,5.9263,-7.7616,0.8989,0.1391,0.1028,0.0497,2.95,1.89,3.29,2.0,-15.71,93.94,-12.44,347.6,52.28,-81.6,5.0,5.519,,,,NaN,,,,0 / 0,2420,2020-10-20 19:36:34:711
6.118,-7.7277,0.9566,5.9263,-7.7616,0.8989,0.1391,0.1028,0.0497,2.95,1.89,3.29,2.0,-15.71,93.94,-12.44,347.6,52.28,-81.6,5.0,5.519,,,,NaN,,,,0 / 0,2425,2020-10-20 19:36:34:716
6.118,-7.7277,0.9566,5.9263,-7.7616,0.8989,0.1391,0.1028,0.0497,3.23,1.09,4.27,2.0,-15.71,93.94,-12.44,347.6,52.28,-81.6,5.0,5.519,,,,NaN,,,,0 / 0,2430,2020-10-20 19:36:34:721
6.185,-7.7062,1.069,5.9183,-7.7666,0.9073,0.2141,0.1295,0.1537,3.23,1.09,4.27,2.0,-15.71,93.94,-12.44,347.6,52.28,-81.6,5.0,5.519,,,,NaN,,,,0 / 0,2435,2020-10-20 19:36:34:726
6.185,-7.7062,1.069,5.9183,-7.7666,0.9073,0.2141,0.1295,0.1537,3.23,1.09,4.27,2.0,-17.66,94.99,-13.49,346.56,52.37,-81.28,5.0,5.519,,,,NaN,,,,0 / 0,2440,2020-10-20 19:36:34:731
6.185,-7.7062,1.069,5.9183,-7.7666,0.9073,0.2141,0.1295,0.1537,4.1,-0.49,4.97,2.0,-17.66,94.99,-13.49,346.56,52.37,-81.28,5.0,5.519,,,,NaN,,,,0 / 0,2445,2020-10-20 19:36:34:736
6.3238,-7.6607,1.1815,5.9097,-7.7722,0.9157,0.3613,0.1809,0.2576,4.1,-0.49,4.97,2.0,-17.66,94.99,-13.49,346.56,52.37,-81.28,5.0,5.519,,,,NaN,,,,0 / 0,2450,2020-10-20 19:36:34:741
6.3238,-7.6607,1.1815,5.9097,-7.7722,0.9157,0.3613,0.1809,0.2576,4.1,-0.49,4.97,2.0,-17.66,94.99,-13.49,346.56,52.37,-81.28,5.0,5.519,,,,NaN,,,,0 / 0,2455,2020-10-20 19:36:34:746
6.386,-7.6248,1.1097,5.9048,-7.7752,0.9217,0.4284,0.22,0.1797,5.5,-1.47,4.44,2.0,-16.46,94.99,-11.69,346.56,52.37,-81.28,5.0,5.519,,,,NaN,,,,0 / 0,2461,2020-10-20 19:36:34:752
6.386,-7.6248,1.1097,5.9048,-7.7752,0.9217,0.4284,0.22,0.1797,5.5,-1.47,4.44,2.0,-16.46,94.99,-11.69,346.56,52.37,-81.28,5.0,5.519,,,,NaN,,,,0 / 0,2466,2020-10-20 19:36:34:757
6.386,-7.6248,1.1097,5.9048,-7.7752,0.9217,0.4284,0.22,0.1797,5.5,-1.47,4.44,2.0,-16.46,94.99,-11.69,346.56,52.37,-81.28,5.0,5.519,,,,NaN,,,,0 / 0,2470,2020-10-20 19:36:34:761
6.386,-7.6248,1.1097,5.9048,-7.7752,0.9217,0.4284,0.22,0.1797,5.5,-1.47,4.44,2.0,-16.46,94.99,-11.69,346.56,52.37,-81.28,5.0,5.519,,,,NaN,,,,0 / 0,2476,2020-10-20 19:36:34:767
6.465,-7.6583,1.0786,5.8995,-7.7781,0.9317,0.5124,0.1898,0.1385,5.71,-1.19,3.15,2.0,-15.56,93.34,-12.89,346.32,52.48,-81.03,5.0,5.519,,,,NaN,,,,0 / 0,2482,2020-10-20 19:36:34:773
6.465,-7.6583,1.0786,5.8995,-7.7781,0.9317,0.5124,0.1898,0.1385,5.71,-1.19,3.15,2.0,-15.56,93.34,-12.89,346.32,52.48,-81.03,5.0,5.519,,,,NaN,,,,0 / 0,2485,2020-10-20 19:36:34:776
6.465,-7.6583,1.0786,5.8995,-7.7781,0.9317,0.5124,0.1898,0.1385,5.5,0.35,2.03,2.0,-15.56,93.34,-12.89,346.32,52.48,-81.03,5.0,5.519,,,,NaN,,,,0 / 0,2490,2020-10-20 19:36:34:781
6.3812,-7.7421,1.0882,5.8954,-7.7793,0.9469,0.4322,0.1081,0.1327,5.5,0.35,2.03,2.0,-15.56,93.34,-12.89,346.32,52.48,-81.03,5.0,5.519,,,,NaN,,,,0 / 0,2495,2020-10-20 19:36:34:786
6.3812,-7.7421,1.0882,5.8954,-7.7793,0.9469,0.4322,0.1081,0.1327,5.4,1.68,1.54,2.0,-14.96,94.69,-11.24,346.32,52.48,-81.03,5.0,5.519,,,,NaN,,,,0 / 0,2501,2020-10-20 19:36:34:792
6.3812,-7.7421,1.0882,5.8954,-7.7793,0.9469,0.4322,0.1081,0.1327,5.4,1.68,1.54,2.0,-14.96,94.69,-11.24,346.32,52.48,-81.03,5.0,5.519,,,,NaN,,,,0 / 0,2505,2020-10-20 19:36:34:796
6.2544,-7.8426,1.1312,5.8926,-7.7796,0.9617,0.3077,0.0085,0.1607,5.47,3.15,1.61,2.0,-14.96,94.69,-11.24,346.32,52.48,-81.03,5.0,5.519,,,,NaN,,,,0 / 0,2510,2020-10-20 19:36:34:801
6.2544,-7.8426,1.1312,5.8926,-7.7796,0.9617,0.3077,0.0085,0.1607,5.47,3.15,1.61,2.0,-14.96,94.69,-11.24,346.32,52.48,-81.03,5.0,5.519,,,,NaN,,,,0 / 0,2516,2020-10-20 19:36:34:807
6.2544,-7.8426,1.1312,5.8926,-7.7796,0.9617,0.3077,0.0085,0.1607,5.47,3.15,1.61,2.0,-14.96,94.69,-11.24,349.3,52.5,-80.73,5.0,5.519,,,,NaN,,,,0 / 0,2520,2020-10-20 19:36:34:811
6.1491,-7.8976,1.2102,5.8887,-7.7801,0.9817,0.2051,-0.0445,0.2193,5.64,5.32,2.24,2.0,-14.96,94.69,-11.24,349.3,52.5,-80.73,5.0,5.519,,,,NaN,,,,0 / 0,2525,2020-10-20 19:36:34:816
6.1491,-7.8976,1.2102,5.8887,-7.7801,0.9817,0.2051,-0.0445,0.2193,6.17,6.02,2.73,2.0,-14.96,94.69,-11.24,349.3,52.5,-80.73,5.0,5.519,,,,NaN,,,,0 / 0,2531,2020-10-20 19:36:34:822
6.1491,-7.8976,1.2102,5.8887,-7.7801,0.9817,0.2051,-0.0445,0.2193,6.17,6.02,2.73,2.0,-14.96,94.69,-11.24,349.3,52.5,-80.73,5.0,5.519,,,,NaN,,,,0 / 0,2535,2020-10-20 19:36:34:826
6.0415,-7.8737,1.2102,5.883,-7.7811,1.008,0.1012,-0.0169,0.1924,6.17,6.02,2.73,2.0,-17.36,94.39,-13.34,349.3,52.5,-80.73,5.0,5.519,,,,NaN,,,,0 / 0,2541,2020-10-20 19:36:34:832
6.0415,-7.8737,1.2102,5.883,-7.7811,1.008,0.1012,-0.0169,0.1924,6.17,6.02,2.73,2.0,-17.36,94.39,-13.34,349.3,52.5,-80.73,5.0,5.519,,,,NaN,,,,0 / 0,2546,2020-10-20 19:36:34:837
6.118,-7.8617,1.1025,5.8773,-7.782,1.0335,0.182,-0.0019,0.0587,6.73,6.3,3.11,2.0,-17.36,94.39,-13.34,349.3,52.5,-80.73,5.0,5.519,,,,NaN,,,,0 / 0,2550,2020-10-20 19:36:34:841
6.118,-7.8617,1.1025,5.8773,-7.782,1.0335,0.182,-0.0019,0.0587,6.73,6.3,3.11,2.0,-17.36,94.39,-13.34,349.3,52.5,-80.73,5.0,5.519,,,,NaN,,,,0 / 0,2555,2020-10-20 19:36:34:846
6.118,-7.8617,1.1025,5.8773,-7.782,1.0335,0.182,-0.0019,0.0587,6.73,6.3,3.11,2.0,-17.36,94.39,-13.34,349.3,52.5,-80.73,5.0,5.519,,,,NaN,,,,0 / 0,2560,2020-10-20 19:36:34:851
6.1874,-7.8761,1.1241,5.8742,-7.7812,1.0569,0.2522,-0.0142,0.0562,6.8,6.13,2.48,2.0,-16.61,93.34,-12.89,346.64,52.52,-80.03,5.0,5.519,,,,NaN,,,,0 / 0,2565,2020-10-20 19:36:34:856
6.1874,-7.8761,1.1241,5.8742,-7.7812,1.0569,0.2522,-0.0142,0.0562,6.8,6.13,2.48,2.0,-16.61,93.34,-12.89,346.64,52.52,-80.03,5.0,5.519,,,,NaN,,,,0 / 0,2571,2020-10-20 19:36:34:862
6.1874,-7.8761,1.1241,5.8742,-7.7812,1.0569,0.2522,-0.0142,0.0562,6.8,6.13,2.48,2.0,-16.61,93.34,-12.89,346.64,52.52,-80.03,5.0,5.519,,,,NaN,,,,0 / 0,2576,2020-10-20 19:36:34:867
6.1874,-7.9431,1.1121,5.8734,-7.7798,1.0715,0.251,-0.0798,0.0291,6.62,5.74,1.19,2.0,-16.61,93.64,-12.29,346.64,52.52,-80.03,5.0,5.519,,,,NaN,,,,0 / 0,2580,2020-10-20 19:36:34:871
6.1874,-7.9431,1.1121,5.8734,-7.7798,1.0715,0.251,-0.0798,0.0291,6.62,5.74,1.19,2.0,-16.61,93.64,-12.29,346.64,52.52,-80.03,5.0,5.519,,,,NaN,,,,0 / 0,2586,2020-10-20 19:36:34:877
6.1874,-7.9431,1.1121,5.8734,-7.7798,1.0715,0.251,-0.0798,0.0291,5.99,6.23,0.31,2.0,-16.61,93.64,-12.29,346.64,52.52,-80.03,5.0,5.519,,,,NaN,,,,0 / 0,2590,2020-10-20 19:36:34:881
5.941,-8.0125,1.0116,5.8702,-7.7788,1.0963,0.0048,-0.1462,-0.0971,5.99,6.23,0.31,2.0,-16.61,93.64,-12.29,346.64,52.52,-80.03,5.0,9.575,,,,NaN,,,,0 / 0,2595,2020-10-20 19:36:34:886
5.941,-8.0125,1.0116,5.8702,-7.7788,1.0963,0.0048,-0.1462,-0.0971,5.99,6.23,0.31,2.0,-16.61,93.64,-12.29,346.64,52.52,-80.03,5.0,9.575,,,,NaN,,,,0 / 0,2600,2020-10-20 19:36:34:891
5.941,-8.0125,1.0116,5.8702,-7.7788,1.0963,0.0048,-0.1462,-0.0971,5.19,6.76,0.63,2.0,-15.71,93.49,-11.99,348.2,52.49,-79.42,5.0,9.575,,,,NaN,,,,0 / 0,2606,2020-10-20 19:36:34:897
5.941,-8.0125,1.0116,5.8702,-7.7788,1.0963,0.0048,-0.1462,-0.0971,5.19,6.76,0.63,2.0,-15.71,93.49,-11.99,348.2,52.49,-79.42,5.0,9.575,,,,NaN,,,,0 / 0,2610,2020-10-20 19:36:34:901
5.8261,-8.0149,1.1767,5.8635,-7.781,1.1158,-0.1045,-0.1449,0.0481,4.98,6.34,1.36,2.0,-15.71,93.49,-11.99,348.2,52.49,-79.42,5.0,9.575,,,,NaN,,,,0 / 0,2615,2020-10-20 19:36:34:906
5.8261,-8.0149,1.1767,5.8635,-7.781,1.1158,-0.1045,-0.1449,0.0481,4.98,6.34,1.36,2.0,-15.26,94.84,-13.34,348.2,52.49,-79.42,5.0,9.575,,,,NaN,,,,0 / 0,2620,2020-10-20 19:36:34:911
5.8261,-8.0149,1.1767,5.8635,-7.781,1.1158,-0.1045,-0.1449,0.0481,4.98,6.34,1.36,2.0,-15.26,94.84,-13.34,348.2,52.49,-79.42,5.0,9.575,,,,NaN,,,,0 / 0,2625,2020-10-20 19:36:34:916
5.7974,-7.9694,1.2461,5.8525,-7.7855,1.1422,-0.1318,-0.0851,0.1171,6.48,3.96,2.76,2.0,-15.26,94.84,-13.34,348.2,52.49,-79.42,5.0,9.575,,,,NaN,,,,0 / 0,2631,2020-10-20 19:36:34:922
5.7974,-7.9694,1.2461,5.8525,-7.7855,1.1422,-0.1318,-0.0851,0.1171,6.48,3.96,2.76,2.0,-15.26,94.84,-13.34,348.2,52.49,-79.42,5.0,9.575,,,,NaN,,,,0 / 0,2635,2020-10-20 19:36:34:926
5.7974,-7.9694,1.2461,5.8525,-7.7855,1.1422,-0.1318,-0.0851,0.1171,9.0,-1.19,4.16,2.0,-15.26,94.84,-13.34,348.2,52.49,-79.42,5.0,9.575,,,,NaN,,,,0 / 0,2640,2020-10-20 19:36:34:931
5.7926,-7.9455,1.1647,5.8442,-7.7894,1.1584,-0.1185,-0.0669,-0.0069,9.0,-1.19,4.16,2.0,-17.06,93.64,-13.64,345.91,52.55,-78.96,5.0,9.575,,,,NaN,,,,0 / 0,2646,2020-10-20 19:36:34:937
5.7926,-7.9455,1.1647,5.8442,-7.7894,1.1584,-0.1185,-0.0669,-0.0069,9.0,-1.19,4.16,2.0,-17.06,93.64,-13.64,345.91,52.55,-78.96,5.0,9.575,,,,NaN,,,,0 / 0,2650,2020-10-20 19:36:34:941
5.7926,-7.9455,1.1647,5.8442,-7.7894,1.1584,-0.1185,-0.0669,-0.0069,11.35,-6.79,5.04,2.0,-17.06,93.64,-13.64,345.91,52.55,-78.96,5.0,9.575,,,,NaN,,,,0 / 0,2656,2020-10-20 19:36:34:947
5.9697,-7.8928,1.0212,5.8363,-7.7935,1.1703,0.0665,-0.01,-0.1626,11.35,-6.79,5.04,2.0,-17.06,94.39,-12.89,345.91,52.55,-78.96,5.0,9.575,,,,NaN,,,,0 / 0,2660,2020-10-20 19:36:34:951
5.9697,-7.8928,1.0212,5.8363,-7.7935,1.1703,0.0665,-0.01,-0.1626,12.26,-9.69,4.76,2.0,-17.06,94.39,-12.89,345.91,52.55,-78.96,5.0,9.575,,,,NaN,,,,0 / 0,2666,2020-10-20 19:36:34:957
5.9697,-7.8928,1.0212,5.8363,-7.7935,1.1703,0.0665,-0.01,-0.1626,12.26,-9.69,4.76,2.0,-17.06,94.39,-12.89,345.91,52.55,-78.96,5.0,9.575,,,,NaN,,,,0 / 0,2671,2020-10-20 19:36:34:962
6.1635,-7.8617,0.801,5.8305,-7.7965,1.1789,0.2661,0.0243,-0.3915,11.87,-12.18,3.39,2.0,-17.06,94.39,-12.89,345.91,52.55,-78.96,5.0,9.575,,,,NaN,,,,0 / 0,2676,2020-10-20 19:36:34:967
6.1635,-7.8617,0.801,5.8305,-7.7965,1.1789,0.2661,0.0243,-0.3915,11.87,-12.18,3.39,2.0,-16.01,94.39,-11.84,348.61,52.66,-78.57,5.0,9.575,,,,NaN,,,,0 / 0,2681,2020-10-20 19:36:34:972
6.1635,-7.8617,0.801,5.8305,-7.7965,1.1789,0.2661,0.0243,-0.3915,11.87,-12.18,3.39,2.0,-16.01,94.39,-11.84,348.61,52.66,-78.57,5.0,9.575,,,,NaN,,,,0 / 0,2685,2020-10-20 19:36:34:976
6.1635,-7.8617,0.801,5.8305,-7.7965,1.1789,0.2661,0.0243,-0.3915,11.0,-12.28,1.61,2.0,-16.01,94.39,-11.84,348.61,52.66,-78.57,5.0,9.575,,,,NaN,,,,0 / 0,2690,2020-10-20 19:36:34:981
6.3573,-7.8737,0.624,5.8322,-7.795,1.1807,0.4578,0.0113,-0.5704,11.0,-12.28,1.61,2.0,-16.01,94.39,-11.84,348.61,52.66,-78.57,5.0,9.575,,,,NaN,,,,0 / 0,2695,2020-10-20 19:36:34:986
6.3573,-7.8737,0.624,5.8322,-7.795,1.1807,0.4578,0.0113,-0.5704,9.67,-11.09,-0.81,2.0,-16.16,94.69,-13.19,348.61,52.66,-78.57,5.0,9.575,,,,NaN,,,,0 / 0,2700,2020-10-20 19:36:34:991
6.398,-7.8306,0.3273,5.8409,-7.7887,1.1794,0.4893,0.0485,-0.8658,9.67,-11.09,-0.81,2.0,-16.16,94.69,-13.19,348.61,52.66,-78.57,5.0,9.575,,,,NaN,,,,0 / 0,2705,2020-10-20 19:36:34:996
6.398,-7.8306,0.3273,5.8409,-7.7887,1.1794,0.4893,0.0485,-0.8658,5.64,-8.43,-4.8,2.0,-16.16,94.69,-13.19,348.61,52.66,-78.57,5.0,9.575,,,,NaN,,,,0 / 0,2710,2020-10-20 19:36:35:001
6.398,-7.8306,0.3273,5.8409,-7.7887,1.1794,0.4893,0.0485,-0.8658,5.64,-8.43,-4.8,2.0,-16.16,94.69,-13.19,348.61,52.66,-78.57,5.0,9.575,,,,NaN,,,,0 / 0,2715,2020-10-20 19:36:35:006
6.1156,-7.9311,-0.0101,5.8554,-7.7789,1.1719,0.1921,-0.0617,-1.1956,5.64,-8.43,-4.8,2.0,-16.61,92.29,-12.29,348.36,52.58,-78.58,5.0,9.575,,,,NaN,,,,0 / 0,2720,2020-10-20 19:36:35:011
6.1156,-7.9311,-0.0101,5.8554,-7.7789,1.1719,0.1921,-0.0617,-1.1956,5.64,-8.43,-4.8,2.0,-16.61,92.29,-12.29,348.36,52.58,-78.58,5.0,9.575,,,,NaN,,,,0 / 0,2725,2020-10-20 19:36:35:016
6.1156,-7.9311,-0.0101,5.8554,-7.7789,1.1719,0.1921,-0.0617,-1.1956,-1.15,-4.76,-7.0,2.0,-16.61,92.29,-12.29,348.36,52.58,-78.58,5.0,9.575,,,,NaN,,,,0 / 0,2730,2020-10-20 19:36:35:021
5.9625,-8.0484,-0.0819,5.8711,-7.7698,1.1534,0.0231,-0.1881,-1.2488,-1.15,-4.76,-7.0,2.0,-16.61,92.29,-12.29,348.36,52.58,-78.58,5.0,9.575,,,,NaN,,,,0 / 0,2735,2020-10-20 19:36:35:026
5.9625,-8.0484,-0.0819,5.8711,-7.7698,1.1534,0.0231,-0.1881,-1.2488,-1.15,-4.76,-7.0,2.0,-16.61,92.29,-12.29,348.36,52.58,-78.58,5.0,9.575,,,,NaN,,,,0 / 0,2740,2020-10-20 19:36:35:031
5.9625,-8.0484,-0.0819,5.8711,-7.7698,1.1534,0.0231,-0.1881,-1.2488,-9.51,-3.04,-7.46,2.0,-16.01,94.09,-11.84,348.36,52.58,-78.58,5.0,9.575,,,,NaN,,,,0 / 0,2745,2020-10-20 19:36:35:036
5.7759,-8.2063,0.198,5.881,-7.7652,1.1336,-0.1781,-0.3522,-0.937,-9.51,-3.04,-7.46,2.0,-16.01,94.09,-11.84,348.36,52.58,-78.58,5.0,9.575,,,,NaN,,,,0 / 0,2751,2020-10-20 19:36:35:042
5.7759,-8.2063,0.198,5.881,-7.7652,1.1336,-0.1781,-0.3522,-0.937,-9.51,-3.04,-7.46,2.0,-16.01,94.09,-11.84,348.36,52.58,-78.58,5.0,9.575,,,,NaN,,,,0 / 0,2756,2020-10-20 19:36:35:047
5.7759,-8.2063,0.198,5.881,-7.7652,1.1336,-0.1781,-0.3522,-0.937,-9.51,-3.04,-7.46,2.0,-16.01,94.09,-11.84,348.36,52.58,-78.58,5.0,9.575,,,,NaN,,,,0 / 0,2760,2020-10-20 19:36:35:051
5.6873,-8.2374,0.6622,5.8925,-7.7618,1.097,-0.274,-0.385,-0.4476,-19.07,0.81,-5.71,2.0,-17.66,93.94,-14.24,345.81,52.32,-79.45,5.0,9.575,,,,NaN,,,,0 / 0,2765,2020-10-20 19:36:35:056
5.6873,-8.2374,0.6622,5.8925,-7.7618,1.097,-0.274,-0.385,-0.4476,-19.07,0.81,-5.71,2.0,-17.66,93.94,-14.24,345.81,52.32,-79.45,5.0,9.575,,,,NaN,,,,0 / 0,2770,2020-10-20 19:36:35:061
5.6873,-8.2374,0.6622,5.8925,-7.7618,1.097,-0.274,-0.385,-0.4476,-19.07,0.81,-5.71,2.0,-17.66,93.94,-14.24,345.81,52.32,-79.45,5.0,9.575,,,,NaN,,,,0 / 0,2775,2020-10-20 19:36:35:066
5.6155,-8.2039,1.3681,5.8989,-7.7622,1.0592,-0.3525,-0.3508,0.2966,-20.96,2.14,-3.5,2.0,-17.36,93.64,-12.59,345.81,52.32,-79.45,5.0,9.575,,,,NaN,,,,0 / 0,2780,2020-10-20 19:36:35:071
5.6155,-8.2039,1.3681,5.8989,-7.7622,1.0592,-0.3525,-0.3508,0.2966,-20.96,2.14,-3.5,2.0,-17.36,93.64,-12.59,345.81,52.32,-79.45,5.0,9.575,,,,NaN,,,,0 / 0,2785,2020-10-20 19:36:35:076
5.6155,-8.2039,1.3681,5.8989,-7.7622,1.0592,-0.3525,-0.3508,0.2966,-20.96,2.14,-3.5,2.0,-17.36,93.64,-12.59,345.81,52.32,-79.45,5.0,9.575,,,,NaN,,,,0 / 0,2790,2020-10-20 19:36:35:081
5.6419,-8.1824,1.9089,5.9009,-7.7649,1.0273,-0.3285,-0.326,0.8695,-17.67,2.0,-1.44,2.0,-17.36,93.64,-12.59,345.81,52.32,-79.45,5.0,9.575,,,,NaN,,,,0 / 0,2795,2020-10-20 19:36:35:086
5.6419,-8.1824,1.9089,5.9009,-7.7649,1.0273,-0.3285,-0.326,0.8695,-17.67,2.0,-1.44,2.0,-15.71,93.49,-11.24,349.3,52.35,-80.12,5.0,9.575,,,,NaN,,,,0 / 0,2801,2020-10-20 19:36:35:092
5.6419,-8.1824,1.9089,5.9009,-7.7649,1.0273,-0.3285,-0.326,0.8695,-17.67,2.0,-1.44,2.0,-15.71,93.49,-11.24,349.3,52.35,-80.12,5.0,9.575,,,,NaN,,,,0 / 0,2806,2020-10-20 19:36:35:097
5.6969,-8.1608,2.1889,5.8976,-7.7704,1.0044,-0.2706,-0.2983,1.1725,-7.2,0.39,1.5,2.0,-15.71,93.49,-11.24,349.3,52.35,-80.12,5.0,9.575,,,,NaN,,,,0 / 0,2810,2020-10-20 19:36:35:101
5.6969,-8.1608,2.1889,5.8976,-7.7704,1.0044,-0.2706,-0.2983,1.1725,-7.2,0.39,1.5,2.0,-15.71,93.49,-11.24,349.3,52.35,-80.12,5.0,9.575,,,,NaN,,,,0 / 0,2815,2020-10-20 19:36:35:106
5.6969,-8.1608,2.1889,5.8976,-7.7704,1.0044,-0.2706,-0.2983,1.1725,-7.2,0.39,1.5,2.0,-15.71,94.99,-11.24,349.3,52.35,-80.12,5.0,9.575,,,,NaN,,,,0 / 0,2820,2020-10-20 19:36:35:111
5.6825,-8.0484,1.8299,5.8908,-7.7755,1.0051,-0.2904,-0.2137,0.9516,1.51,-0.77,3.64,2.0,-15.71,94.99,-11.24,349.3,52.35,-80.12,5.0,9.575,,,,NaN,,,,0 / 0,2825,2020-10-20 19:36:35:116
5.6825,-8.0484,1.8299,5.8908,-7.7755,1.0051,-0.2904,-0.2137,0.9516,6.03,-1.12,5.63,2.0,-15.71,94.99,-11.24,349.3,52.35,-80.12,5.0,9.575,,,,NaN,,,,0 / 0,2831,2020-10-20 19:36:35:122
5.6825,-8.0484,1.8299,5.8908,-7.7755,1.0051,-0.2904,-0.2137,0.9516,6.03,-1.12,5.63,2.0,-15.71,94.99,-11.24,349.3,52.35,-80.12,5.0,9.575,,,,NaN,,,,0 / 0,2835,2020-10-20 19:36:35:126
5.6825,-8.0484,1.8299,5.8908,-7.7755,1.0051,-0.2904,-0.2137,0.9516,6.03,-1.12,5.63,2.0,-15.71,94.99,-11.24,349.3,52.35,-80.12,5.0,9.575,,,,NaN,,,,0 / 0,2841,2020-10-20 19:36:35:132
5.8883,-7.9981,1.3442,5.8742,-7.7857,1.0231,-0.056,-0.1194,0.3088,9.0,-1.36,7.45,2.0,-17.21,94.99,-12.74,346.93,52.46,-80.32,5.0,9.575,,,,NaN,,,,0 / 0,2845,2020-10-20 19:36:35:136
5.8883,-7.9981,1.3442,5.8742,-7.7857,1.0231,-0.056,-0.1194,0.3088,9.0,-1.36,7.45,2.0,-17.21,94.99,-12.74,346.93,52.46,-80.32,5.0,9.575,,,,NaN,,,,0 / 0,2850,2020-10-20 19:36:35:141
6.1156,-7.8976,1.0044,5.8576,-7.7957,1.042,0.1878,-0.0085,-0.0501,10.47,-0.8,8.99,2.0,-17.21,94.99,-12.74,346.93,52.46,-80.32,5.0,9.575,,,,NaN,,,,0 / 0,2856,2020-10-20 19:36:35:147
6.1156,-7.8976,1.0044,5.8576,-7.7957,1.042,0.1878,-0.0085,-0.0501,10.47,-0.8,8.99,2.0,-19.01,93.49,-14.24,346.93,52.46,-80.32,5.0,9.575,,,,NaN,,,,0 / 0,2860,2020-10-20 19:36:35:151
6.1156,-7.8976,1.0044,5.8576,-7.7957,1.042,0.1878,-0.0085,-0.0501,10.44,-0.56,9.34,2.0,-19.01,93.49,-14.24,346.93,52.46,-80.32,5.0,9.575,,,,NaN,,,,0 / 0,2865,2020-10-20 19:36:35:156
6.1156,-7.8976,1.0044,5.8403,-7.8062,1.0608,0.1878,-0.0085,-0.0501,10.44,-0.56,9.34,2.0,-19.01,93.49,-14.24,346.93,52.46,-80.32,5.0,9.575,,,,NaN,,,,0 / 0,2870,2020-10-20 19:36:35:161
6.3262,-7.7588,0.7891,5.8403,-7.8062,1.0608,0.4157,0.1411,-0.2844,10.44,-0.56,9.34,2.0,-19.01,93.49,-14.24,346.93,52.46,-80.32,5.0,9.575,,,,NaN,,,,0 / 0,2876,2020-10-20 19:36:35:167
6.3262,-7.7588,0.7891,5.8403,-7.8062,1.0608,0.4157,0.1411,-0.2844,9.67,-0.91,9.1,2.0,-15.26,94.39,-12.59,346.86,52.75,-79.71,5.0,9.575,,,,NaN,,,,0 / 0,2880,2020-10-20 19:36:35:171
6.477,-7.7062,0.691,5.8251,-7.8155,1.0754,0.5815,0.2036,-0.3974,9.67,-0.91,9.1,2.0,-15.26,94.39,-12.59,346.86,52.75,-79.71,5.0,9.575,,,,NaN,,,,0 / 0,2886,2020-10-20 19:36:35:177
6.477,-7.7062,0.691,5.8251,-7.8155,1.0754,0.5815,0.2036,-0.3974,9.67,-0.91,9.1,2.0,-15.26,94.39,-12.59,346.86,52.75,-79.71,5.0,9.575,,,,NaN,,,,0 / 0,2890,2020-10-20 19:36:35:181
6.477,-7.7062,0.691,5.8251,-7.8155,1.0754,0.5815,0.2036,-0.3974,7.99,-2.66,7.66,2.0,-15.26,94.39,-12.59,346.86,52.75,-79.71,5.0,9.575,,,,NaN,,,,0 / 0,2895,2020-10-20 19:36:35:186
6.5583,-7.6583,0.6599,5.8144,-7.8224,1.0828,0.6734,0.2589,-0.4361,7.99,-2.66,7.66,2.0,-17.66,92.74,-13.79,346.86,52.75,-79.71,5.0,9.575,,,,NaN,,,,0 / 0,2900,2020-10-20 19:36:35:191
6.5583,-7.6583,0.6599,5.8144,-7.8224,1.0828,0.6734,0.2589,-0.4361,6.2,-6.12,5.56,2.0,-17.66,92.74,-13.79,346.86,52.75,-79.71,5.0,9.575,,,,NaN,,,,0 / 0,2905,2020-10-20 19:36:35:196
6.5751,-7.6727,0.691,5.8102,-7.8255,1.0829,0.6734,0.2589,-0.4361,6.2,-6.12,5.56,2.0,-17.66,92.74,-13.79,346.86,52.75,-79.71,5.0,9.575,,,,NaN,,,,0 / 0,2910,2020-10-20 19:36:35:201
6.5751,-7.6727,0.691,5.8102,-7.8255,1.0829,0.6593,0.2038,-0.3868,5.26,-9.13,4.09,2.0,-17.66,92.74,-13.79,346.86,52.75,-79.71,5.0,4.884,,,,NaN,,,,0 / 0,2916,2020-10-20 19:36:35:207
6.5751,-7.6727,0.691,5.8102,-7.8255,1.0829,0.6593,0.2038,-0.3868,5.26,-9.13,4.09,2.0,-17.21,93.49,-13.49,346.68,52.94,-79.44,5.0,4.884,,,,NaN,,,,0 / 0,2920,2020-10-20 19:36:35:211
6.5751,-7.6727,0.691,5.8102,-7.8255,1.0829,0.6593,0.2038,-0.3868,5.26,-9.13,4.09,2.0,-17.21,93.49,-13.49,346.68,52.94,-79.44,5.0,4.884,,,,NaN,,,,0 / 0,2925,2020-10-20 19:36:35:216
6.5128,-7.7277,0.7891,5.808,-7.8282,1.0758,0.6338,0.1962,-0.2999,4.56,-11.65,3.08,2.0,-17.21,93.49,-13.49,346.68,52.94,-79.44,5.0,4.884,,,,NaN,,,,0 / 0,2930,2020-10-20 19:36:35:221
6.5128,-7.7277,0.7891,5.808,-7.8282,1.0758,0.6338,0.1962,-0.2999,4.56,-11.65,3.08,2.0,-17.21,93.49,-13.49,346.68,52.94,-79.44,5.0,4.884,,,,NaN,,,,0 / 0,2936,2020-10-20 19:36:35:227
6.5128,-7.7277,0.7891,5.808,-7.8282,1.0758,0.6338,0.1962,-0.2999,4.21,-13.75,2.13,2.0,-17.21,93.49,-13.49,346.68,52.94,-79.44,5.0,4.884,,,,NaN,,,,0 / 0,2940,2020-10-20 19:36:35:231
6.41,-7.7445,1.0092,5.8091,-7.8295,1.0601,0.5292,0.1815,-0.0639,4.21,-13.75,2.13,2.0,-14.66,93.49,-13.19,346.68,52.94,-79.44,5.0,4.884,,,,NaN,,,,0 / 0,2946,2020-10-20 19:36:35:237
6.41,-7.7445,1.0092,5.8091,-7.8295,1.0601,0.5292,0.1815,-0.0639,4.21,-13.75,2.13,2.0,-14.66,93.49,-13.19,346.68,52.94,-79.44,5.0,4.884,,,,NaN,,,,0 / 0,2950,2020-10-20 19:36:35:241
6.41,-7.7445,1.0092,5.8091,-7.8295,1.0601,0.5292,0.1815,-0.0639,4.1,-13.16,1.68,2.0,-14.66,93.49,-13.19,346.68,52.94,-79.44,5.0,4.884,,,,NaN,,,,0 / 0,2955,2020-10-20 19:36:35:246
6.41,-7.7445,1.0092,5.8091,-7.8295,1.0601,0.5292,0.1815,-0.0639,4.1,-13.16,1.68,2.0,-14.66,93.49,-13.19,346.68,52.94,-79.44,5.0,4.884,,,,NaN,,,,0 / 0,2960,2020-10-20 19:36:35:251
6.4602,-7.7301,1.0858,5.811,-7.8296,1.0489,0.5771,0.1965,0.0239,3.89,-11.34,1.22,2.0,-17.96,93.19,-12.44,347.9,52.98,-79.77,5.0,4.884,,,,NaN,,,,0 / 0,2965,2020-10-20 19:36:35:256
6.4602,-7.7301,1.0858,5.811,-7.8296,1.0489,0.5771,0.1965,0.0239,3.89,-11.34,1.22,2.0,-17.96,93.19,-12.44,347.9,52.98,-79.77,5.0,4.884,,,,NaN,,,,0 / 0,2971,2020-10-20 19:36:35:262
6.4602,-7.7301,1.0858,5.811,-7.8296,1.0489,0.5771,0.1965,0.0239,3.89,-11.34,1.22,2.0,-17.96,93.19,-12.44,347.9,52.98,-79.77,5.0,4.884,,,,NaN,,,,0 / 0,2976,2020-10-20 19:36:35:267
6.5176,-7.7134,1.1863,5.8148,-7.8277,1.0418,0.6301,0.2123,0.1314,3.68,-6.23,0.1,2.0,-18.26,94.24,-11.24,347.9,52.98,-79.77,5.0,4.884,,,,NaN,,,,0 / 0,2980,2020-10-20 19:36:35:271
6.5176,-7.7134,1.1863,5.8148,-7.8277,1.0418,0.6301,0.2123,0.1314,3.68,-6.23,0.1,2.0,-18.26,94.24,-11.24,347.9,52.98,-79.77,5.0,4.884,,,,NaN,,,,0 / 0,2985,2020-10-20 19:36:35:276
6.5176,-7.7134,1.1863,5.8148,-7.8277,1.0418,0.6301,0.2123,0.1314,3.68,-6.23,0.1,2.0,-18.26,94.24,-11.24,347.9,52.98,-79.77,5.0,4.884,,,,NaN,,,,0 / 0,2990,2020-10-20 19:36:35:281
6.477,-7.7612,1.1528,5.8188,-7.8242,1.0459,0.5848,0.1615,0.0937,3.33,0.04,-1.37,2.0,-18.26,94.24,-11.24,347.9,52.98,-79.77,5.0,4.884,,,,NaN,,,,0 / 0,2996,2020-10-20 19:36:35:287
6.477,-7.7612,1.1528,5.8188,-7.8242,1.0459,0.5848,0.1615,0.0937,3.33,0.04,-1.37,2.0,-17.66,95.74,-10.19,347.9,52.92,-79.81,5.0,4.884,,,,NaN,,,,0 / 0,3000,2020-10-20 19:36:35:291
6.477,-7.7612,1.1528,5.8188,-7.8242,1.0459,0.5848,0.1615,0.0937,2.32,6.65,-2.63,2.0,-17.66,95.74,-10.19,351.06,52.92,-79.81,5.0,4.884,,,,NaN,,,,0 / 0,3005,2020-10-20 19:36:35:296
6.477,-7.7612,1.1528,5.8188,-7.8242,1.0459,0.5848,0.1615,0.0937,2.32,6.65,-2.63,2.0,-17.66,95.74,-10.19,351.06,52.92,-79.81,5.0,4.884,,,,NaN,,,,0 / 0,3010,2020-10-20 19:36:35:301
6.477,-7.7612,1.1528,5.8188,-7.8242,1.0459,0.5848,0.1615,0.0937,2.32,6.65,-2.63,2.0,-17.66,95.74,-10.19,351.06,52.92,-79.81,5.0,4.884,,,,NaN,,,,0 / 0,3016,2020-10-20 19:36:35:307
6.2377,-7.8306,1.1504,5.8249,-7.8172,1.0636,0.3388,0.0858,0.0733,2.0,8.75,-2.8,2.0,-16.61,95.14,-12.59,351.06,52.92,-79.81,5.0,4.884,,,,NaN,,,,0 / 0,3020,2020-10-20 19:36:35:311
6.2377,-7.8306,1.1504,5.8249,-7.8172,1.0636,0.3388,0.0858,0.0733,2.0,8.75,-2.8,2.0,-16.61,95.14,-12.59,351.06,52.92,-79.81,5.0,4.884,,,,NaN,,,,0 / 0,3026,2020-10-20 19:36:35:317
6.2377,-7.8306,1.1504,5.8249,-7.8172,1.0636,0.3388,0.0858,0.0733,2.0,8.75,-2.8,2.0,-16.61,95.14,-12.59,351.06,52.92,-79.81,5.0,4.884,,,,NaN,,,,0 / 0,3030,2020-10-20 19:36:35:321
6.1013,-7.845,1.2126,5.828,-7.8121,1.0843,0.1991,0.0665,0.1145,1.44,12.74,-2.77,2.0,-16.61,95.14,-12.59,351.06,52.92,-79.81,5.0,4.884,,,,NaN,,,,0 / 0,3035,2020-10-20 19:36:35:326
6.1013,-7.845,1.2126,5.828,-7.8121,1.0843,0.1991,0.0665,0.1145,1.44,12.74,-2.77,2.0,-16.61,95.14,-12.59,351.06,52.92,-79.81,5.0,4.884,,,,NaN,,,,0 / 0,3041,2020-10-20 19:36:35:332
6.1013,-7.845,1.2126,5.828,-7.8121,1.0843,0.1991,0.0665,0.1145,1.62,13.09,-2.84,2.0,-17.06,93.34,-11.09,349.43,52.81,-79.46,5.0,4.884,,,,NaN,,,,0 / 0,3045,2020-10-20 19:36:35:336
5.9936,-7.8474,1.0977,5.8312,-7.8055,1.1142,0.0881,0.0575,-0.0307,1.62,13.09,-2.84,2.0,-17.06,93.34,-11.09,349.43,52.81,-79.46,5.0,4.884,,,,NaN,,,,0 / 0,3050,2020-10-20 19:36:35:341
5.9936,-7.8474,1.0977,5.8312,-7.8055,1.1142,0.0881,0.0575,-0.0307,1.65,10.47,-3.08,2.0,-17.06,93.34,-11.09,349.43,52.81,-79.46,5.0,4.884,,,,NaN,,,,0 / 0,3055,2020-10-20 19:36:35:346
5.9936,-7.8474,1.0977,5.8312,-7.8055,1.1142,0.0881,0.0575,-0.0307,1.65,10.47,-3.08,2.0,-17.06,93.34,-11.09,349.43,52.81,-79.46,5.0,4.884,,,,NaN,,,,0 / 0,3061,2020-10-20 19:36:35:352
5.9864,-7.7923,0.9685,5.8348,-7.8002,1.1323,0.0774,0.1071,-0.1782,1.65,10.47,-3.08,2.0,-16.01,94.84,-14.69,349.43,52.81,-79.46,5.0,4.884,,,,NaN,,,,0 / 0,3065,2020-10-20 19:36:35:356
5.9864,-7.7923,0.9685,5.8348,-7.8002,1.1323,0.0774,0.1071,-0.1782,0.88,6.2,-3.96,2.0,-16.01,94.84,-14.69,349.43,52.81,-79.46,5.0,4.884,,,,NaN,,,,0 / 0,3070,2020-10-20 19:36:35:361
5.9864,-7.7923,0.9685,5.8348,-7.8002,1.1323,0.0774,0.1071,-0.1782,0.88,6.2,-3.96,2.0,-16.01,94.84,-14.69,349.43,52.81,-79.46,5.0,4.884,,,,NaN,,,,0 / 0,3075,2020-10-20 19:36:35:366
5.9338,-7.7421,0.8034,5.8412,-7.794,1.1421,0.0185,0.1507,-0.3532,0.36,4.83,-4.13,2.0,-16.01,94.84,-14.69,349.43,52.81,-79.46,5.0,4.884,,,,NaN,,,,0 / 0,3080,2020-10-20 19:36:35:371
5.9338,-7.7421,0.8034,5.8412,-7.794,1.1421,0.0185,0.1507,-0.3532,0.36,4.83,-4.13,2.0,-15.41,94.99,-13.49,347.34,52.63,-78.94,5.0,4.884,,,,NaN,,,,0 / 0,3085,2020-10-20 19:36:35:376
5.9338,-7.7421,0.8034,5.8412,-7.794,1.1421,0.0185,0.1507,-0.3532,0.36,4.83,-4.13,2.0,-15.41,94.99,-13.49,347.34,52.63,-78.94,5.0,4.884,,,,NaN,,,,0 / 0,3091,2020-10-20 19:36:35:382
5.9122,-7.7947,0.8656,5.8531,-7.7852,1.1414,-0.0147,0.0886,-0.2901,-1.57,-0.24,-4.9,2.0,-15.41,94.99,-13.49,347.34,52.63,-78.94,5.0,4.884,,,,NaN,,,,0 / 0,3095,2020-10-20 19:36:35:386
5.9122,-7.7947,0.8656,5.8531,-7.7852,1.1414,-0.0147,0.0886,-0.2901,-1.57,-0.24,-4.9,2.0,-15.41,94.99,-13.49,347.34,52.63,-78.94,5.0,4.884,,,,NaN,,,,0 / 0,3100,2020-10-20 19:36:35:391
5.9122,-7.7947,0.8656,5.8531,-7.7852,1.1414,-0.0147,0.0886,-0.2901,-1.57,-0.24,-4.9,2.0,-15.71,93.94,-13.19,347.34,52.63,-78.94,5.0,4.884,,,,NaN,,,,0 / 0,3106,2020-10-20 19:36:35:397
5.9122,-7.8641,0.935,5.8645,-7.7779,1.1328,-0.0261,0.0117,-0.2121,-2.76,-2.83,-5.53,2.0,-15.71,93.94,-13.19,347.34,52.63,-78.94,5.0,4.884,,,,NaN,,,,0 / 0,3110,2020-10-20 19:36:35:401
5.9122,-7.8641,0.935,5.8645,-7.7779,1.1328,-0.0261,0.0117,-0.2121,-2.76,-2.83,-5.53,2.0,-15.71,93.94,-13.19,347.34,52.63,-78.94,5.0,4.884,,,,NaN,,,,0 / 0,3115,2020-10-20 19:36:35:406
5.8118,-7.9407,1.0571,5.8762,-7.7709,1.1195,-0.0261,0.0117,-0.2121,-3.81,-4.41,-5.43,2.0,-15.71,93.94,-13.19,347.34,52.63,-78.94,5.0,4.884,,,,NaN,,,,0 / 0,3121,2020-10-20 19:36:35:412
5.8118,-7.9407,1.0571,5.8762,-7.7709,1.1195,-0.1384,-0.072,-0.0766,-3.81,-4.41,-5.43,2.0,-17.21,94.69,-12.44,348.67,52.41,-79.21,5.0,4.884,,,,NaN,,,,0 / 0,3126,2020-10-20 19:36:35:417
5.8118,-7.9407,1.0571,5.8762,-7.7709,1.1195,-0.1384,-0.072,-0.0766,-3.81,-4.41,-5.43,2.0,-17.21,94.69,-12.44,348.67,52.41,-79.21,5.0,4.884,,,,NaN,,,,0 / 0,3130,2020-10-20 19:36:35:421
5.8118,-7.9407,1.0571,5.8762,-7.7709,1.1195,-0.1384,-0.072,-0.0766,-4.33,-4.23,-5.01,2.0,-17.21,94.69,-12.44,348.67,52.41,-79.21,5.0,4.884,,,,NaN,,,,0 / 0,3135,2020-10-20 19:36:35:426
5.7687,-7.9359,1.2293,5.8868,-7.765,1.105,-0.1384,-0.072,-0.0766,-4.33,-4.23,-5.01,2.0,-17.21,94.69,-12.44,348.67,52.41,-79.21,5.0,4.884,,,,NaN,,,,0 / 0,3140,2020-10-20 19:36:35:431
5.7687,-7.9359,1.2293,5.8868,-7.765,1.105,-0.1953,-0.0704,0.1321,-4.51,-4.09,-4.66,2.0,-17.66,92.74,-12.44,348.67,52.41,-79.21,5.0,4.884,,,,NaN,,,,0 / 0,3145,2020-10-20 19:36:35:436
5.7687,-7.9359,1.2293,5.8868,-7.765,1.105,-0.1953,-0.0704,0.1321,-4.51,-4.09,-4.66,2.0,-17.66,92.74,-12.44,348.67,52.41,-79.21,5.0,4.884,,,,NaN,,,,0 / 0,3150,2020-10-20 19:36:35:441
5.7471,-7.979,1.3394,5.8955,-7.7603,1.0917,-0.1953,-0.0704,0.1321,-4.61,-1.5,-3.43,2.0,-17.66,92.74,-12.44,348.67,52.41,-79.21,5.0,4.884,,,,NaN,,,,0 / 0,3155,2020-10-20 19:36:35:446
5.7471,-7.979,1.3394,5.8955,-7.7603,1.0917,-0.2173,-0.1368,0.271,-4.61,-1.5,-3.43,2.0,-17.66,92.74,-12.44,348.67,52.41,-79.21,5.0,4.884,,,,NaN,,,,0 / 0,3161,2020-10-20 19:36:35:452
5.7567,-8.0173,1.5045,5.9006,-7.7575,1.0832,-0.2173,-0.1368,0.271,-4.12,0.04,-2.45,2.0,-17.06,93.64,-12.29,348.43,52.31,-79.51,5.0,4.884,,,,NaN,,,,0 / 0,3166,2020-10-20 19:36:35:457
5.7567,-8.0173,1.5045,5.9006,-7.7575,1.0832,-0.2173,-0.1368,0.271,-4.12,0.04,-2.45,2.0,-17.06,93.64,-12.29,348.43,52.31,-79.51,5.0,4.884,,,,NaN,,,,0 / 0,3171,2020-10-20 19:36:35:462
5.7567,-8.0173,1.5045,5.9006,-7.7575,1.0832,-0.2173,-0.1368,0.271,-4.12,0.04,-2.45,2.0,-17.06,93.64,-12.29,348.43,52.31,-79.51,5.0,4.884,,,,NaN,,,,0 / 0,3175,2020-10-20 19:36:35:466
5.7208,-7.9598,1.6098,5.9024,-7.7564,1.0818,-0.2555,-0.1106,0.5147,-2.58,1.3,-1.58,2.0,-17.06,93.64,-12.29,348.43,52.31,-79.51,5.0,4.884,,,,NaN,,,,0 / 0,3180,2020-10-20 19:36:35:471
5.7208,-7.9598,1.6098,5.9024,-7.7564,1.0818,-0.2555,-0.1106,0.5147,-2.58,1.3,-1.58,2.0,-17.06,93.04,-12.29,348.43,52.31,-79.51,5.0,4.884,,,,NaN,,,,0 / 0,3185,2020-10-20 19:36:35:476
5.7208,-7.9598,1.6098,5.9024,-7.7564,1.0818,-0.2555,-0.1106,0.5147,-2.58,1.3,-1.58,2.0,-17.06,93.04,-12.29,348.43,52.31,-79.51,5.0,4.884,,,,NaN,,,,0 / 0,3190,2020-10-20 19:36:35:481
5.85,-7.8833,1.5428,5.9021,-7.7563,1.0842,-0.1262,-0.0296,0.445,0.32,1.26,-0.04,2.0,-17.06,93.04,-12.29,348.43,52.31,-79.51,5.0,4.884,,,,NaN,,,,0 / 0,3195,2020-10-20 19:36:35:486
5.85,-7.8833,1.5428,5.9021,-7.7563,1.0842,-0.1262,-0.0296,0.445,0.32,1.26,-0.04,2.0,-17.06,93.04,-12.29,348.43,52.31,-79.51,5.0,4.884,,,,NaN,,,,0 / 0,3200,2020-10-20 19:36:35:491
5.85,-7.8833,1.5428,5.9021,-7.7563,1.0842,-0.1262,-0.0296,0.445,2.63,0.39,-0.04,2.0,-17.06,94.39,-14.09,345.81,52.27,-79.59,5.0,4.884,,,,NaN,,,,0 / 0,3205,2020-10-20 19:36:35:496
5.996,-7.8833,1.1408,5.9019,-7.7554,1.0921,0.0199,-0.0304,0.035,2.63,0.39,-0.04,2.0,-17.06,94.39,-14.09,345.81,52.27,-79.59,5.0,4.884,,,,NaN,,,,0 / 0,3210,2020-10-20 19:36:35:501
5.996,-7.8833,1.1408,5.9019,-7.7554,1.0921,0.0199,-0.0304,0.035,2.63,0.39,-0.04,2.0,-17.06,94.39,-14.09,345.81,52.27,-79.59,5.0,4.884,,,,NaN,,,,0 / 0,3215,2020-10-20 19:36:35:506
5.996,-7.8833,1.1408,5.9019,-7.7554,1.0921,0.0199,-0.0304,0.035,2.39,1.12,-0.25,2.0,-17.06,94.39,-14.09,345.81,52.27,-79.59,5.0,4.884,,,,NaN,,,,0 / 0,3221,2020-10-20 19:36:35:512
5.996,-7.8833,1.1408,5.9019,-7.7554,1.0921,0.0199,-0.0304,0.035,2.39,1.12,-0.25,2.0,-17.06,94.39,-12.29,345.81,52.27,-79.59,5.0,4.884,,,,NaN,,,,0 / 0,3225,2020-10-20 19:36:35:516
6.0175,-7.7947,0.9518,5.9022,-7.7543,1.0979,0.0412,0.0569,-0.1599,2.39,1.12,-0.25,2.0,-17.06,94.39,-12.29,345.81,52.27,-79.59,5.0,4.884,,,,NaN,,,,0 / 0,3230,2020-10-20 19:36:35:521
6.0175,-7.7947,0.9518,5.9022,-7.7543,1.0979,0.0412,0.0569,-0.1599,1.02,0.88,-0.56,2.0,-17.06,94.39,-12.29,345.81,52.27,-79.59,5.0,4.884,,,,NaN,,,,0 / 0,3235,2020-10-20 19:36:35:526
6.0175,-7.7947,0.9518,5.9022,-7.7543,1.0979,0.0474,0.0795,-0.2248,1.02,0.88,-0.56,2.0,-17.06,94.39,-12.29,345.81,52.27,-79.59,5.0,4.884,,,,NaN,,,,0 / 0,3240,2020-10-20 19:36:35:531
6.008,-7.7923,0.8609,5.904,-7.7525,1.1008,0.0474,0.0795,-0.2248,1.02,0.88,-0.56,2.0,-17.96,94.69,-12.74,347.35,52.25,-79.46,5.0,4.557,,,,NaN,,,,0 / 0,3246,2020-10-20 19:36:35:537
6.008,-7.7923,0.8609,5.904,-7.7525,1.1008,0.0474,0.0795,-0.2248,-0.27,0.7,-1.05,2.0,-17.96,94.69,-12.74,347.35,52.25,-79.46,5.0,4.557,,,,NaN,,,,0 / 0,3250,2020-10-20 19:36:35:541
6.008,-7.7923,0.8609,5.904,-7.7525,1.1008,0.0167,0.0276,-0.2651,-0.27,0.7,-1.05,2.0,-17.96,94.69,-12.74,347.35,52.25,-79.46,5.0,4.557,,,,NaN,,,,0 / 0,3255,2020-10-20 19:36:35:546
5.9529,-7.8211,0.8632,5.9061,-7.7511,1.0994,0.0167,0.0276,-0.2651,-1.22,0.53,-1.16,2.0,-17.96,94.69,-12.74,347.35,52.25,-79.46,5.0,4.557,,,,NaN,,,,0 / 0,3260,2020-10-20 19:36:35:551
5.9529,-7.8211,0.8632,5.9061,-7.7511,1.0994,0.0167,0.0276,-0.2651,-1.22,0.53,-1.16,2.0,-16.61,95.14,-13.34,347.35,52.25,-79.46,5.0,4.557,,,,NaN,,,,0 / 0,3265,2020-10-20 19:36:35:556
5.9529,-7.8211,0.8632,5.9061,-7.7511,1.0994,-0.0524,0.0644,-0.2159,-1.22,0.53,-1.16,2.0,-16.61,95.14,-13.34,347.35,52.25,-79.46,5.0,4.557,,,,NaN,,,,0 / 0,3271,2020-10-20 19:36:35:562
5.9194,-7.7804,0.9039,5.9084,-7.75,1.0946,-0.0524,0.0644,-0.2159,-2.37,-0.28,-1.12,2.0,-16.61,95.14,-13.34,347.35,52.25,-79.46,5.0,4.557,,,,NaN,,,,0 / 0,3276,2020-10-20 19:36:35:567
5.9194,-7.7804,0.9039,5.9084,-7.75,1.0946,-0.0524,0.0644,-0.2159,-2.37,-0.28,-1.12,2.0,-16.61,95.14,-13.34,347.35,52.25,-79.46,5.0,4.557,,,,NaN,,,,0 / 0,3281,2020-10-20 19:36:35:572
5.9194,-7.7804,0.9039,5.9084,-7.75,1.0946,-0.0498,0.0608,-0.0966,-3.11,-0.7,-1.09,2.0,-17.81,94.39,-13.64,345.85,52.21,-79.5,5.0,4.557,,,,NaN,,,,0 / 0,3285,2020-10-20 19:36:35:576
