accel_x,accel_y,accel_z,grav_x,grav_y,grav_z,lin_acc_x,lin_acc_y,lin_acc_z,gyro_x,gyro_y,gyro_z,light,magn_x,magn_y,magn_z,orien_z,orien_x,orien_y,prox,sound,latitude,longitude,altitude,altit_google,speed,accuracy,orient,satellites,time,time_stamp
1.5693,0.8936,7.7019,0.849,1.2841,9.6851,0.7111,-0.4045,-2.0884,-5.44,105.14,10.46,5.0,-14.96,58.84,-30.14,12.74,-7.09,-7.82,5.0,24.193,,,,NaN,,,,0 / 0,16,2020-10-20 19:52:21:970
1.5693,0.8936,7.7019,0.849,1.2841,9.6851,0.7111,-0.4045,-2.0884,-5.44,105.14,10.46,5.0,-14.96,58.84,-30.14,12.74,-7.09,-7.82,5.0,24.193,,,,NaN,,,,0 / 0,27,2020-10-20 19:52:21:981
1.5693,0.8936,7.7019,0.849,1.2841,9.6851,0.7111,-0.4045,-2.0884,-5.44,105.14,10.46,5.0,-14.96,58.84,-30.14,12.74,-7.09,-7.82,5.0,24.193,,,,NaN,,,,0 / 0,28,2020-10-20 19:52:21:982
1.5693,0.8936,7.7019,0.849,1.2841,9.6851,0.7111,-0.4045,-2.0884,-5.44,105.14,10.46,5.0,-14.96,58.84,-30.14,12.74,-7.09,-7.82,5.0,24.193,,,,NaN,,,,0 / 0,28,2020-10-20 19:52:21:982
1.5693,0.8936,7.7019,0.849,1.2841,9.6851,0.7111,-0.4045,-2.0884,-5.44,105.14,10.46,5.0,-14.96,58.84,-30.14,12.74,-7.09,-7.82,5.0,24.193,,,,NaN,,,,0 / 0,28,2020-10-20 19:52:21:982
1.5693,0.8936,7.7019,0.849,1.2841,9.6851,0.7111,-0.4045,-2.0884,-5.44,105.14,10.46,5.0,-14.96,58.84,-30.14,12.74,-7.09,-7.82,5.0,24.193,,,,NaN,,,,0 / 0,32,2020-10-20 19:52:21:986
0.648,0.6735,8.6902,0.5862,1.2469,9.7094,0.0558,-0.5864,-1.1197,-16.32,107.66,11.58,7.0,-12.41,58.39,-30.89,9.33,-7.3,-3.46,5.0,24.193,,,,NaN,,,,0 / 0,38,2020-10-20 19:52:21:992
0.648,0.6735,8.6902,0.5862,1.2469,9.7094,0.0558,-0.5864,-1.1197,-16.32,107.66,11.58,7.0,-12.41,58.39,-30.89,9.33,-7.3,-3.46,5.0,24.193,,,,NaN,,,,0 / 0,43,2020-10-20 19:52:21:997
0.648,0.6735,8.6902,0.5862,1.2469,9.7094,0.0558,-0.5864,-1.1197,-16.32,107.66,11.58,7.0,-12.41,58.39,-30.89,9.33,-7.3,-3.46,5.0,24.193,,,,NaN,,,,0 / 0,48,2020-10-20 19:52:22:002
0.2915,0.573,8.5873,0.328,1.2011,9.7273,-0.0397,-0.64,-1.2357,-17.02,108.71,16.72,7.0,-10.16,58.99,-31.79,9.33,-7.3,-3.46,5.0,24.193,,,,NaN,,,,0 / 0,53,2020-10-20 19:52:22:007
0.2915,0.573,8.5873,0.328,1.2011,9.7273,-0.0397,-0.64,-1.2357,-17.02,108.71,16.72,7.0,-10.16,58.99,-31.79,9.33,-7.3,-3.46,5.0,24.193,,,,NaN,,,,0 / 0,58,2020-10-20 19:52:22:012
0.2915,0.573,8.5873,0.328,1.2011,9.7273,-0.0397,-0.64,-1.2357,-10.72,117.04,17.46,7.0,-10.16,58.99,-31.79,9.33,-7.3,-3.46,5.0,24.193,,,,NaN,,,,0 / 0,63,2020-10-20 19:52:22:017
0.392,0.5993,9.1951,-0.0454,1.1583,9.7379,0.4378,-0.5698,-0.6341,-10.72,117.04,17.46,7.0,-10.16,58.99,-31.79,9.33,-7.3,-3.46,5.0,24.193,,,,NaN,,,,0 / 0,67,2020-10-20 19:52:22:021
0.392,0.5993,9.1951,-0.0454,1.1583,9.7379,0.4378,-0.5698,-0.6341,-5.26,119.77,13.01,7.0,-8.81,61.39,-32.39,8.09,-6.78,0.27,5.0,24.193,,,,NaN,,,,0 / 0,73,2020-10-20 19:52:22:027
0.392,0.5993,9.1951,-0.0454,1.1583,9.7379,0.4378,-0.5698,-0.6341,-5.26,119.77,13.01,7.0,-8.81,61.39,-32.39,8.09,-6.78,0.27,5.0,24.193,,,,NaN,,,,0 / 0,78,2020-10-20 19:52:22:032
0.392,0.5993,9.1951,-0.0454,1.1583,9.7379,0.4378,-0.5698,-0.6341,-5.26,119.77,13.01,7.0,-8.81,61.39,-32.39,8.09,-6.78,0.27,5.0,24.193,,,,NaN,,,,0 / 0,82,2020-10-20 19:52:22:036
1.0907,0.9989,9.542,-0.3293,1.15,9.7334,1.423,-0.1617,-0.2808,-1.03,114.35,2.51,7.0,-8.81,61.39,-32.39,8.09,-6.78,0.27,5.0,24.193,,,,NaN,,,,0 / 0,87,2020-10-20 19:52:22:041
1.0907,0.9989,9.542,-0.3293,1.15,9.7334,1.423,-0.1617,-0.2808,-1.03,114.35,2.51,7.0,-8.06,59.59,-33.89,8.09,-6.78,0.27,5.0,24.193,,,,NaN,,,,0 / 0,93,2020-10-20 19:52:22:047
1.0907,0.9989,9.542,-0.3293,1.15,9.7334,1.423,-0.1617,-0.2808,-1.03,114.35,2.51,7.0,-8.06,59.59,-33.89,8.09,-6.78,0.27,5.0,24.193,,,,NaN,,,,0 / 0,98,2020-10-20 19:52:22:052
1.2462,1.7383,8.9534,-0.6338,1.1582,9.7174,1.8857,0.5698,-0.8503,5.03,78.86,-33.57,7.0,-8.06,59.59,-33.89,8.09,-6.78,0.27,5.0,24.193,,,,NaN,,,,0 / 0,103,2020-10-20 19:52:22:057
1.2462,1.7383,8.9534,-0.6338,1.1582,9.7174,1.8857,0.5698,-0.8503,5.03,78.86,-33.57,7.0,-8.06,59.59,-33.89,8.09,-6.78,0.27,5.0,24.193,,,,NaN,,,,0 / 0,107,2020-10-20 19:52:22:061
1.2462,1.7383,8.9534,-0.6338,1.1582,9.7174,1.8857,0.5698,-0.8503,5.03,78.86,-33.57,7.0,-8.06,59.59,-33.89,8.09,-6.78,0.27,5.0,24.193,,,,NaN,,,,0 / 0,112,2020-10-20 19:52:22:066
1.1601,1.9847,7.6277,-0.8015,1.1708,9.7035,1.9682,0.8043,-2.1554,8.98,59.08,-63.18,7.0,-7.76,60.19,-34.49,9.62,-6.86,4.72,5.0,24.193,,,,NaN,,,,0 / 0,118,2020-10-20 19:52:22:072
1.1601,1.9847,7.6277,-0.8015,1.1708,9.7035,1.9682,0.8043,-2.1554,8.98,59.08,-63.18,7.0,-7.76,60.19,-34.49,9.62,-6.86,4.72,5.0,24.193,,,,NaN,,,,0 / 0,122,2020-10-20 19:52:22:076
1.1601,1.9847,7.6277,-0.8015,1.1708,9.7035,1.9682,0.8043,-2.1554,20.32,122.29,-89.26,7.0,-7.76,60.19,-34.49,9.62,-6.86,4.72,5.0,24.193,,,,NaN,,,,0 / 0,128,2020-10-20 19:52:22:082
1.1601,1.9847,7.6277,-0.8015,1.1708,9.7035,1.9682,0.8043,-2.1554,20.32,122.29,-89.26,7.0,-7.76,60.19,-34.49,9.62,-6.86,4.72,5.0,24.193,,,,NaN,,,,0 / 0,133,2020-10-20 19:52:22:087
-1.9242,0.3074,11.2385,-1.177,1.2019,9.6613,-0.7375,-0.9044,1.4978,37.89,167.16,-86.74,7.0,-3.71,56.59,-34.49,9.62,-6.86,4.72,5.0,24.193,,,,NaN,,,,0 / 0,138,2020-10-20 19:52:22:092
-1.9242,0.3074,11.2385,-1.177,1.2019,9.6613,-0.7375,-0.9044,1.4978,37.89,167.16,-86.74,7.0,-3.71,56.59,-34.49,9.62,-6.86,4.72,5.0,24.193,,,,NaN,,,,0 / 0,143,2020-10-20 19:52:22:097
-1.9242,0.3074,11.2385,-1.177,1.2019,9.6613,-0.7375,-0.9044,1.4978,37.89,167.16,-86.74,7.0,-3.71,56.59,-34.49,9.62,-6.86,4.72,5.0,24.193,,,,NaN,,,,0 / 0,148,2020-10-20 19:52:22:102
-3.793,-0.9297,8.5992,-1.5904,1.2653,9.5937,-2.1897,-2.2053,-1.0723,39.47,142.07,-60.49,9.0,-3.11,55.99,-35.54,8.38,-7.41,9.41,5.0,24.193,,,,NaN,,,,0 / 0,153,2020-10-20 19:52:22:107
-3.793,-0.9297,8.5992,-1.5904,1.2653,9.5937,-2.1897,-2.2053,-1.0723,39.47,142.07,-60.49,9.0,-3.11,55.99,-35.54,8.38,-7.41,9.41,5.0,24.193,,,,NaN,,,,0 / 0,158,2020-10-20 19:52:22:112
-3.793,-0.9297,8.5992,-1.5904,1.2653,9.5937,-2.1897,-2.2053,-1.0723,39.47,142.07,-60.49,9.0,-3.11,55.99,-35.54,8.38,-7.41,9.41,5.0,24.193,,,,NaN,,,,0 / 0,163,2020-10-20 19:52:22:117
-2.8838,1.5995,7.5488,-1.8866,1.275,9.5386,-0.9836,0.3153,-2.0583,-16.57,64.12,0.52,9.0,-3.11,55.99,-35.54,8.38,-7.41,9.41,5.0,24.193,,,,NaN,,,,0 / 0,167,2020-10-20 19:52:22:121
-2.8838,1.5995,7.5488,-1.8866,1.275,9.5386,-0.9836,0.3153,-2.0583,-16.57,64.12,0.52,9.0,-3.11,55.99,-35.54,8.38,-7.41,9.41,5.0,24.193,,,,NaN,,,,0 / 0,173,2020-10-20 19:52:22:127
-2.8838,1.5995,7.5488,-1.8866,1.275,9.5386,-0.9836,0.3153,-2.0583,-16.57,64.12,0.52,9.0,0.49,56.44,-37.34,8.38,-7.41,9.41,5.0,24.193,,,,NaN,,,,0 / 0,178,2020-10-20 19:52:22:132
-2.8838,1.5995,7.5488,-1.8866,1.275,9.5386,-0.9836,0.3153,-2.0583,-16.57,64.12,0.52,9.0,0.49,56.44,-37.34,8.38,-7.41,9.41,5.0,24.193,,,,NaN,,,,0 / 0,183,2020-10-20 19:52:22:137
-3.3145,2.3365,9.8531,-2.0117,1.1971,9.5231,-1.2885,1.1309,0.2624,-37.18,40.53,-8.76,9.0,0.49,56.44,-37.34,8.38,-7.41,9.41,5.0,24.193,,,,NaN,,,,0 / 0,188,2020-10-20 19:52:22:142
-3.3145,2.3365,9.8531,-2.0117,1.1971,9.5231,-1.2885,1.1309,0.2624,-37.18,40.53,-8.76,9.0,0.49,56.44,-37.34,8.38,-7.41,9.41,5.0,24.193,,,,NaN,,,,0 / 0,193,2020-10-20 19:52:22:147
-3.3145,2.3365,9.8531,-2.0117,1.1971,9.5231,-1.2885,1.1309,0.2624,-37.18,40.53,-8.76,9.0,0.49,56.44,-37.34,8.38,-7.41,9.41,5.0,24.193,,,,NaN,,,,0 / 0,198,2020-10-20 19:52:22:152
-0.9719,2.2958,10.1976,-1.9206,1.0749,9.5565,0.963,1.2129,0.5699,-34.63,-98.28,-19.4,9.0,0.64,57.34,-37.04,6.24,-7.01,11.93,5.0,24.193,,,,NaN,,,,0 / 0,203,2020-10-20 19:52:22:157
-0.9719,2.2958,10.1976,-1.9206,1.0749,9.5565,0.963,1.2129,0.5699,-34.63,-98.28,-19.4,9.0,0.64,57.34,-37.04,6.24,-7.01,11.93,5.0,24.193,,,,NaN,,,,0 / 0,208,2020-10-20 19:52:22:162
-0.9719,2.2958,10.1976,-1.9206,1.0749,9.5565,0.963,1.2129,0.5699,-34.63,-98.28,-19.4,9.0,0.64,57.34,-37.04,6.24,-7.01,11.93,5.0,24.193,,,,NaN,,,,0 / 0,213,2020-10-20 19:52:22:167
1.6028,1.4918,13.1169,-1.4227,1.0112,9.6501,3.037,0.4724,3.3885,-12.19,-245.11,-31.82,9.0,-0.41,59.59,-35.69,6.24,-7.01,11.93,5.0,24.193,,,,NaN,,,,0 / 0,218,2020-10-20 19:52:22:172
1.6028,1.4918,13.1169,-1.4227,1.0112,9.6501,3.037,0.4724,3.3885,-12.19,-245.11,-31.82,9.0,-0.41,59.59,-35.69,6.24,-7.01,11.93,5.0,24.193,,,,NaN,,,,0 / 0,223,2020-10-20 19:52:22:177
1.6028,1.4918,13.1169,-1.4227,1.0112,9.6501,3.037,0.4724,3.3885,-12.19,-245.11,-31.82,9.0,-0.41,59.59,-35.69,6.24,-7.01,11.93,5.0,24.193,,,,NaN,,,,0 / 0,228,2020-10-20 19:52:22:182
1.6028,1.4918,13.1169,-1.4227,1.0112,9.6501,3.037,0.4724,3.3885,-12.19,-245.11,-31.82,9.0,-0.41,59.59,-35.69,6.24,-7.01,11.93,5.0,24.193,,,,NaN,,,,0 / 0,233,2020-10-20 19:52:22:187
1.4137,1.5899,11.8128,-0.785,1.0489,9.7187,2.2059,0.5313,2.0046,34.6,-251.76,-41.9,9.0,-6.11,58.54,-34.79,6.24,-7.01,11.93,5.0,24.193,,,,NaN,,,,0 / 0,238,2020-10-20 19:52:22:192
1.4137,1.5899,11.8128,-0.785,1.0489,9.7187,2.2059,0.5313,2.0046,34.6,-251.76,-41.9,9.0,-6.11,58.54,-34.79,6.24,-7.01,11.93,5.0,24.193,,,,NaN,,,,0 / 0,243,2020-10-20 19:52:22:197
1.4137,1.5899,11.8128,-0.785,1.0489,9.7187,2.2059,0.5313,2.0046,34.6,-251.76,-41.9,9.0,-6.11,58.54,-34.79,6.24,-7.01,11.93,5.0,24.193,,,,NaN,,,,0 / 0,247,2020-10-20 19:52:22:201
0.069,2.023,5.1057,-0.2091,1.1721,9.7341,0.2797,0.8417,-4.7052,24.03,-137.52,-53.94,9.0,-6.11,58.54,-34.79,6.24,-7.01,11.93,5.0,24.193,,,,NaN,,,,0 / 0,252,2020-10-20 19:52:22:206
0.069,2.023,5.1057,-0.2091,1.1721,9.7341,0.2797,0.8417,-4.7052,24.03,-137.52,-53.94,9.0,-8.81,57.64,-34.19,8.97,-6.86,1.23,5.0,24.193,,,,NaN,,,,0 / 0,258,2020-10-20 19:52:22:212
0.069,2.023,5.1057,-0.2091,1.1721,9.7341,0.2797,0.8417,-4.7052,24.03,-137.52,-53.94,9.0,-8.81,57.64,-34.19,8.97,-6.86,1.23,5.0,24.193,,,,NaN,,,,0 / 0,263,2020-10-20 19:52:22:217
-0.3498,2.2527,5.759,0.0544,1.1444,9.7395,-0.4045,1.1012,-4.041,-29.94,-101.36,-30.21,9.0,-8.81,57.64,-34.19,8.97,-6.86,1.23,5.0,24.193,,,,NaN,,,,0 / 0,274,2020-10-20 19:52:22:228
-0.3498,2.2527,5.759,0.0544,1.1444,9.7395,-0.4045,1.1012,-4.041,-29.94,-101.36,-30.21,7.0,-11.51,57.49,-32.24,8.97,-6.86,1.23,5.0,24.193,,,,NaN,,,,0 / 0,276,2020-10-20 19:52:22:230
-0.3498,2.2527,5.759,0.0544,1.1444,9.7395,-0.4045,1.1012,-4.041,-43.9,-65.28,-28.5,7.0,-11.51,57.49,-32.24,8.97,-6.86,1.23,5.0,24.193,,,,NaN,,,,0 / 0,279,2020-10-20 19:52:22:233
-0.3498,2.2527,5.759,0.0544,1.1444,9.7395,-0.4045,1.1012,-4.041,-43.9,-65.28,-28.5,7.0,-11.51,57.49,-32.24,8.97,-6.86,1.23,5.0,24.193,,,,NaN,,,,0 / 0,283,2020-10-20 19:52:22:237
4.254,1.4176,10.2766,0.2963,1.0128,9.7497,3.9561,0.3991,0.4724,-43.9,-65.28,-28.5,7.0,-11.51,57.49,-32.24,8.97,-6.86,1.23,5.0,24.193,,,,NaN,,,,0 / 0,288,2020-10-20 19:52:22:242
4.254,1.4176,10.2766,0.2963,1.0128,9.7497,3.9561,0.3991,0.4724,-18.98,-87.57,-65.63,7.0,-11.51,57.49,-32.24,8.97,-6.86,1.23,5.0,27.767,,,,NaN,,,,0 / 0,292,2020-10-20 19:52:22:246
4.254,1.4176,10.2766,0.2963,1.0128,9.7497,3.9561,0.3991,0.4724,-18.98,-87.57,-65.63,7.0,-11.51,57.49,-32.24,8.97,-6.86,1.23,5.0,27.767,,,,NaN,,,,0 / 0,298,2020-10-20 19:52:22:252
4.0291,0.6232,11.7602,0.5135,0.974,9.7446,3.5123,-0.3569,1.9543,11.64,-118.62,-92.76,7.0,-10.16,55.99,-31.04,8.73,-5.93,-1.74,5.0,27.767,,,,NaN,,,,0 / 0,303,2020-10-20 19:52:22:257
4.0291,0.6232,11.7602,0.5135,0.974,9.7446,3.5123,-0.3569,1.9543,11.64,-118.62,-92.76,7.0,-10.16,55.99,-31.04,8.73,-5.93,-1.74,5.0,27.767,,,,NaN,,,,0 / 0,308,2020-10-20 19:52:22:262
4.0291,0.6232,11.7602,0.5135,0.974,9.7446,3.5123,-0.3569,1.9543,11.64,-118.62,-92.76,7.0,-10.16,55.99,-31.04,8.73,-5.93,-1.74,5.0,27.767,,,,NaN,,,,0 / 0,312,2020-10-20 19:52:22:266
-0.1583,-0.7742,8.8337,0.8516,1.0508,9.7129,-1.015,-1.8312,-0.9369,24.7,-103.18,-58.0,7.0,-14.51,56.74,-31.04,8.73,-5.93,-1.74,5.0,27.767,,,,NaN,,,,0 / 0,318,2020-10-20 19:52:22:272
-0.1583,-0.7742,8.8337,0.8516,1.0508,9.7129,-1.015,-1.8312,-0.9369,24.7,-103.18,-58.0,7.0,-14.51,56.74,-31.04,8.73,-5.93,-1.74,5.0,27.767,,,,NaN,,,,0 / 0,323,2020-10-20 19:52:22:277
-0.1583,-0.7742,8.8337,0.8516,1.0508,9.7129,-1.015,-1.8312,-0.9369,24.7,-103.18,-58.0,7.0,-14.51,56.74,-31.04,8.73,-5.93,-1.74,5.0,27.767,,,,NaN,,,,0 / 0,328,2020-10-20 19:52:22:282
-0.1583,-0.7742,8.8337,0.8516,1.0508,9.7129,-1.015,-1.8312,-0.9369,24.7,-103.18,-58.0,7.0,-14.51,56.74,-31.04,8.73,-5.93,-1.74,5.0,27.767,,,,NaN,,,,0 / 0,332,2020-10-20 19:52:22:286
0.9759,-1.248,6.8884,1.0849,1.1156,9.6824,-0.1144,-2.369,-2.8415,28.34,-87.61,1.22,7.0,-14.81,55.69,-31.04,8.73,-5.93,-1.74,5.0,27.767,,,,NaN,,,,0 / 0,338,2020-10-20 19:52:22:292
0.9759,-1.248,6.8884,1.0849,1.1156,9.6824,-0.1144,-2.369,-2.8415,28.34,-87.61,1.22,7.0,-14.81,55.69,-31.04,8.73,-5.93,-1.74,5.0,27.767,,,,NaN,,,,0 / 0,343,2020-10-20 19:52:22:297
0.9759,-1.248,6.8884,1.0849,1.1156,9.6824,-0.1144,-2.369,-2.8415,28.34,-87.61,1.22,7.0,-14.81,55.69,-31.04,8.73,-5.93,-1.74,5.0,27.767,,,,NaN,,,,0 / 0,348,2020-10-20 19:52:22:302
1.5645,0.3241,7.7306,1.249,1.1635,9.657,0.3105,-0.8441,-1.9651,18.57,-57.79,13.71,7.0,-14.81,55.69,-31.04,8.73,-5.93,-1.74,5.0,27.767,,,,NaN,,,,0 / 0,353,2020-10-20 19:52:22:307
1.5645,0.3241,7.7306,1.249,1.1635,9.657,0.3105,-0.8441,-1.9651,18.57,-57.79,13.71,7.0,-17.06,55.99,-27.14,12.78,-6.81,-7.37,5.0,27.767,,,,NaN,,,,0 / 0,358,2020-10-20 19:52:22:312
1.5645,0.3241,7.7306,1.249,1.1635,9.657,0.3105,-0.8441,-1.9651,18.57,-57.79,13.71,7.0,-17.06,55.99,-27.14,12.78,-6.81,-7.37,5.0,27.767,,,,NaN,,,,0 / 0,363,2020-10-20 19:52:22:317
3.9358,0.8721,7.8646,1.4097,1.1663,9.6345,2.5217,-0.2979,-1.7997,-5.65,-33.85,17.67,7.0,-17.06,55.99,-27.14,12.78,-6.81,-7.37,5.0,27.767,,,,NaN,,,,0 / 0,368,2020-10-20 19:52:22:322
3.9358,0.8721,7.8646,1.4097,1.1663,9.6345,2.5217,-0.2979,-1.7997,-5.65,-33.85,17.67,7.0,-17.06,55.99,-27.14,12.78,-6.81,-7.37,5.0,27.767,,,,NaN,,,,0 / 0,372,2020-10-20 19:52:22:326
3.9358,0.8721,7.8646,1.4097,1.1663,9.6345,2.5217,-0.2979,-1.7997,-5.65,-33.85,17.67,7.0,-16.61,54.19,-27.89,12.78,-6.81,-7.37,5.0,27.767,,,,NaN,,,,0 / 0,378,2020-10-20 19:52:22:332
3.9358,0.8721,7.8646,1.4097,1.1663,9.6345,2.5217,-0.2979,-1.7997,-5.65,-33.85,17.67,7.0,-16.61,54.19,-27.89,12.78,-6.81,-7.37,5.0,27.767,,,,NaN,,,,0 / 0,383,2020-10-20 19:52:22:337
3.3711,1.109,8.5538,1.5179,1.1291,9.6224,1.849,-0.0232,-1.0952,-14.96,-46.41,13.54,7.0,-16.61,54.19,-27.89,12.78,-6.81,-7.37,5.0,27.767,,,,NaN,,,,0 / 0,388,2020-10-20 19:52:22:342
3.3711,1.109,8.5538,1.5179,1.1291,9.6224,1.849,-0.0232,-1.0952,-14.96,-46.41,13.54,7.0,-16.61,54.19,-27.89,12.78,-6.81,-7.37,5.0,27.767,,,,NaN,,,,0 / 0,393,2020-10-20 19:52:22:347
3.3711,1.109,8.5538,1.5179,1.1291,9.6224,1.849,-0.0232,-1.0952,-14.96,-46.41,13.54,7.0,-16.61,54.19,-27.89,12.78,-6.81,-7.37,5.0,27.767,,,,NaN,,,,0 / 0,398,2020-10-20 19:52:22:352
2.3517,0.8122,8.7787,1.749,1.0872,9.588,0.5986,-0.2775,-0.8322,-8.87,-84.04,-5.61,7.0,-17.96,55.54,-28.04,12.78,-6.61,-8.96,5.0,27.767,,,,NaN,,,,0 / 0,402,2020-10-20 19:52:22:356
2.3517,0.8122,8.7787,1.749,1.0872,9.588,0.5986,-0.2775,-0.8322,-8.87,-84.04,-5.61,7.0,-17.96,55.54,-28.04,12.78,-6.61,-8.96,5.0,27.767,,,,NaN,,,,0 / 0,408,2020-10-20 19:52:22:362
2.3517,0.8122,8.7787,1.749,1.0872,9.588,0.5986,-0.2775,-0.8322,-8.87,-84.04,-5.61,7.0,-17.96,55.54,-28.04,12.78,-6.61,-8.96,5.0,27.767,,,,NaN,,,,0 / 0,413,2020-10-20 19:52:22:367
1.409,0.2667,9.1281,2.0188,1.0855,9.535,-0.6142,-0.8211,-0.4273,0.86,-128.0,-15.76,7.0,-19.61,55.69,-27.89,12.78,-6.61,-8.96,5.0,27.767,,,,NaN,,,,0 / 0,418,2020-10-20 19:52:22:372
1.409,0.2667,9.1281,2.0188,1.0855,9.535,-0.6142,-0.8211,-0.4273,0.86,-128.0,-15.76,7.0,-19.61,55.69,-27.89,12.78,-6.61,-8.96,5.0,27.767,,,,NaN,,,,0 / 0,422,2020-10-20 19:52:22:376
1.409,0.2667,9.1281,2.0188,1.0855,9.535,-0.6142,-0.8211,-0.4273,4.15,-154.07,-19.15,7.0,-19.61,55.69,-27.89,12.78,-6.61,-8.96,5.0,27.767,,,,NaN,,,,0 / 0,428,2020-10-20 19:52:22:382
1.409,0.2667,9.1281,2.0188,1.0855,9.535,-0.6142,-0.8211,-0.4273,4.15,-154.07,-19.15,7.0,-19.61,55.69,-27.89,12.78,-6.61,-8.96,5.0,27.767,,,,NaN,,,,0 / 0,432,2020-10-20 19:52:22:386
1.2462,0.6854,8.2283,2.4883,1.1081,9.4208,-1.2459,-0.4245,-1.2072,4.15,-154.07,-19.15,7.0,-20.21,53.29,-25.49,13.03,-6.49,-14.8,5.0,27.767,,,,NaN,,,,0 / 0,438,2020-10-20 19:52:22:392
1.2462,0.6854,8.2283,2.4883,1.1081,9.4208,-1.2459,-0.4245,-1.2072,-10.9,-152.53,-12.82,7.0,-20.21,53.29,-25.49,13.03,-6.49,-14.8,5.0,27.767,,,,NaN,,,,0 / 0,442,2020-10-20 19:52:22:396
1.2462,0.6854,8.2283,2.4883,1.1081,9.4208,-1.2459,-0.4245,-1.2072,-10.9,-152.53,-12.82,7.0,-20.21,53.29,-25.49,13.03,-6.49,-14.8,5.0,27.767,,,,NaN,,,,0 / 0,448,2020-10-20 19:52:22:402
2.2153,0.7189,7.7546,2.8418,1.0882,9.3226,-0.629,-0.3702,-1.5763,-21.01,-142.91,-10.09,7.0,-20.21,53.29,-25.49,13.03,-6.49,-14.8,5.0,27.767,,,,NaN,,,,0 / 0,453,2020-10-20 19:52:22:407
2.2153,0.7189,7.7546,2.8418,1.0882,9.3226,-0.629,-0.3702,-1.5763,-21.01,-142.91,-10.09,7.0,-23.51,55.54,-25.19,13.03,-6.49,-14.8,5.0,27.767,,,,NaN,,,,0 / 0,457,2020-10-20 19:52:22:411
2.2153,0.7189,7.7546,2.8418,1.0882,9.3226,-0.629,-0.3702,-1.5763,-21.01,-142.91,-10.09,7.0,-23.51,55.54,-25.19,13.03,-6.49,-14.8,5.0,27.767,,,,NaN,,,,0 / 0,463,2020-10-20 19:52:22:417
2.2153,0.4174,11.0638,3.1841,0.9397,9.2276,0.0309,-0.5231,1.8277,-53.98,-104.16,-1.97,7.0,-23.51,55.54,-25.19,13.03,-6.49,-14.8,5.0,27.767,,,,NaN,,,,0 / 0,468,2020-10-20 19:52:22:422
3.2179,0.4174,11.0638,3.1841,0.9397,9.2276,0.0309,-0.5231,1.8277,-53.98,-104.16,-1.97,7.0,-23.51,55.54,-25.19,13.03,-6.49,-14.8,5.0,27.767,,,,NaN,,,,0 / 0,473,2020-10-20 19:52:22:427
3.2179,0.4174,11.0638,3.1841,0.9397,9.2276,0.0309,-0.5231,1.8277,-53.98,-104.16,-1.97,7.0,-24.11,55.09,-22.19,15.1,-5.5,-19.04,5.0,27.767,,,,NaN,,,,0 / 0,477,2020-10-20 19:52:22:431
3.2179,0.4174,11.0638,3.1841,0.9397,9.2276,0.0309,-0.5231,1.8277,-53.98,-104.16,-1.97,7.0,-24.11,55.09,-22.19,15.1,-5.5,-19.04,5.0,27.767,,,,NaN,,,,0 / 0,483,2020-10-20 19:52:22:437
4.3402,0.2212,13.5572,3.324,0.7847,9.1927,1.0085,-0.5653,4.3432,-60.6,-46.69,5.63,7.0,-24.11,55.09,-22.19,15.1,-5.5,-19.04,5.0,27.767,,,,NaN,,,,0 / 0,487,2020-10-20 19:52:22:441
4.3402,0.2212,13.5572,3.324,0.7847,9.1927,1.0085,-0.5653,4.3432,-60.6,-46.69,5.63,7.0,-24.11,55.09,-22.19,15.1,-5.5,-19.04,5.0,27.767,,,,NaN,,,,0 / 0,494,2020-10-20 19:52:22:448
4.3402,0.2212,13.5572,3.324,0.7847,9.1927,1.0085,-0.5653,4.3432,-60.6,-46.69,5.63,7.0,-24.11,55.09,-22.19,15.1,-5.5,-19.04,5.0,27.767,,,,NaN,,,,0 / 0,501,2020-10-20 19:52:22:455
3.998,0.8146,13.8323,3.3985,0.6513,9.1759,0.5834,0.1603,4.6131,-30.85,-18.83,-7.29,7.0,-23.66,57.94,-20.99,15.1,-5.5,-19.04,5.0,27.767,,,,NaN,,,,0 / 0,508,2020-10-20 19:52:22:462
3.998,0.8146,13.8323,3.3985,0.6513,9.1759,0.5834,0.1603,4.6131,-30.85,-18.83,-7.29,7.0,-23.66,57.94,-20.99,15.1,-5.5,-19.04,5.0,27.767,,,,NaN,,,,0 / 0,518,2020-10-20 19:52:22:472
3.998,0.8146,13.8323,3.3985,0.6513,9.1759,0.5834,0.1603,4.6131,-30.85,-18.83,-7.29,7.0,-23.66,57.94,-20.99,15.1,-5.5,-19.04,5.0,27.767,,,,NaN,,,,0 / 0,518,2020-10-20 19:52:22:472
3.998,0.8146,13.8323,3.3985,0.6513,9.1759,0.5834,0.1603,4.6131,-30.85,-18.83,-7.29,7.0,-23.66,57.94,-20.99,15.1,-5.5,-19.04,5.0,27.767,,,,NaN,,,,0 / 0,518,2020-10-20 19:52:22:472
2.9667,1.0683,12.4565,3.4336,0.6166,9.1652,-0.4877,0.448,3.236,-17.23,-19.08,-16.25,9.0,-25.76,56.74,-20.99,16.13,-3.6,-20.54,5.0,27.767,,,,NaN,,,,0 / 0,523,2020-10-20 19:52:22:477
2.9667,1.0683,12.4565,3.4336,0.6166,9.1652,-0.4877,0.448,3.236,-17.23,-19.08,-16.25,9.0,-25.76,56.74,-20.99,16.13,-3.6,-20.54,5.0,27.767,,,,NaN,,,,0 / 0,527,2020-10-20 19:52:22:481
2.9667,1.0683,12.4565,3.4336,0.6166,9.1652,-0.4877,0.448,3.236,-17.23,-19.08,-16.25,9.0,-25.76,56.74,-20.99,16.13,-3.6,-20.54,5.0,27.767,,,,NaN,,,,0 / 0,533,2020-10-20 19:52:22:487
2.2417,1.018,12.1119,3.4876,0.5974,9.1461,-1.2702,0.4165,2.9022,-15.06,-31.54,-18.77,9.0,-25.46,57.19,-20.99,16.13,-3.6,-20.54,5.0,27.767,,,,NaN,,,,0 / 0,538,2020-10-20 19:52:22:492
2.2417,1.018,12.1119,3.4876,0.5974,9.1461,-1.2702,0.4165,2.9022,-15.06,-31.54,-18.77,9.0,-25.46,57.19,-20.99,16.13,-3.6,-20.54,5.0,27.767,,,,NaN,,,,0 / 0,543,2020-10-20 19:52:22:497
2.2417,1.018,12.1119,3.4876,0.5974,9.1461,-1.2702,0.4165,2.9022,-15.06,-31.54,-18.77,9.0,-25.46,57.19,-20.99,16.13,-3.6,-20.54,5.0,27.767,,,,NaN,,,,0 / 0,548,2020-10-20 19:52:22:502
2.9021,1.085,11.6812,3.5689,0.5783,9.1159,-0.6955,0.502,2.492,-13.24,-25.66,-18.42,9.0,-25.46,57.19,-20.99,16.13,-3.6,-20.54,5.0,27.767,,,,NaN,,,,0 / 0,552,2020-10-20 19:52:22:506
2.9021,1.085,11.6812,3.5689,0.5783,9.1159,-0.6955,0.502,2.492,-13.24,-25.66,-18.42,9.0,-26.06,57.04,-20.69,15.77,-3.38,-21.38,5.0,27.767,,,,NaN,,,,0 / 0,558,2020-10-20 19:52:22:512
2.9021,1.085,11.6812,3.5689,0.5783,9.1159,-0.6955,0.502,2.492,-13.24,-25.66,-18.42,9.0,-26.06,57.04,-20.69,15.77,-3.38,-21.38,5.0,27.767,,,,NaN,,,,0 / 0,565,2020-10-20 19:52:22:519
3.3376,1.4679,10.9155,3.5915,0.5688,9.1076,-0.2854,0.8941,1.7282,-13.73,-4.94,-22.27,9.0,-26.06,57.04,-20.69,15.77,-3.38,-21.38,5.0,27.767,,,,NaN,,,,0 / 0,568,2020-10-20 19:52:22:522
3.3376,1.4679,10.9155,3.5915,0.5688,9.1076,-0.2854,0.8941,1.7282,-13.73,-4.94,-22.27,9.0,-26.06,57.04,-20.69,15.77,-3.38,-21.38,5.0,27.767,,,,NaN,,,,0 / 0,572,2020-10-20 19:52:22:526
3.3376,1.4679,10.9155,3.5915,0.5688,9.1076,-0.2854,0.8941,1.7282,-19.75,19.18,-25.31,9.0,-26.06,58.84,-20.39,15.77,-3.38,-21.38,5.0,27.767,,,,NaN,,,,0 / 0,578,2020-10-20 19:52:22:532
3.3376,1.4679,10.9155,3.5915,0.5688,9.1076,-0.2854,0.8941,1.7282,-19.75,19.18,-25.31,9.0,-26.06,58.84,-20.39,15.77,-3.38,-21.38,5.0,27.767,,,,NaN,,,,0 / 0,582,2020-10-20 19:52:22:536
2.8973,1.1616,10.4776,3.5358,0.5453,9.1308,-0.6714,0.6112,1.2619,-23.15,29.54,-27.62,9.0,-26.06,58.84,-20.39,15.77,-3.38,-21.38,5.0,27.767,,,,NaN,,,,0 / 0,587,2020-10-20 19:52:22:541
2.8973,1.1616,10.4776,3.5358,0.5453,9.1308,-0.6714,0.6112,1.2619,-23.15,29.54,-27.62,9.0,-26.06,58.84,-20.39,15.77,-3.38,-21.38,5.0,27.767,,,,NaN,,,,0 / 0,592,2020-10-20 19:52:22:546
2.8973,1.1616,10.4776,3.5358,0.5453,9.1308,-0.6714,0.6112,1.2619,-23.15,29.54,-27.62,9.0,-26.06,58.84,-20.39,15.77,-3.38,-21.38,5.0,27.767,,,,NaN,,,,0 / 0,600,2020-10-20 19:52:22:554
2.6748,0.6591,10.4489,3.452,0.5177,9.1644,-0.8105,0.1364,1.1959,-22.76,35.87,-28.81,9.0,-25.31,56.59,-20.09,15.64,-3.03,-20.64,5.0,27.767,,,,NaN,,,,0 / 0,603,2020-10-20 19:52:22:557
2.6748,0.6591,10.4489,3.452,0.5177,9.1644,-0.8105,0.1364,1.1959,-22.76,35.87,-28.81,9.0,-25.31,56.59,-20.09,15.64,-3.03,-20.64,5.0,27.767,,,,NaN,,,,0 / 0,608,2020-10-20 19:52:22:562
2.6748,0.6591,10.4489,3.452,0.5177,9.1644,-0.8105,0.1364,1.1959,-22.76,35.87,-28.81,9.0,-25.31,56.59,-20.09,15.64,-3.03,-20.64,5.0,27.767,,,,NaN,,,,0 / 0,612,2020-10-20 19:52:22:566
2.6748,0.6591,10.4489,3.452,0.5177,9.1644,-0.8105,0.1364,1.1959,-22.76,35.87,-28.81,9.0,-25.31,56.59,-20.09,15.64,-3.03,-20.64,5.0,27.767,,,,NaN,,,,0 / 0,619,2020-10-20 19:52:22:573
1.7487,0.2691,9.5947,3.3225,0.4896,9.2137,-1.6062,-0.2253,0.2912,-14.43,36.85,-19.64,9.0,-26.06,57.34,-20.09,15.64,-3.03,-20.64,5.0,26.735,,,,NaN,,,,0 / 0,623,2020-10-20 19:52:22:577
1.7487,0.2691,9.5947,3.3225,0.4896,9.2137,-1.6062,-0.2253,0.2912,-14.43,36.85,-19.64,9.0,-26.06,57.34,-20.09,15.64,-3.03,-20.64,5.0,26.735,,,,NaN,,,,0 / 0,628,2020-10-20 19:52:22:582
1.7487,0.2691,9.5947,3.3225,0.4896,9.2137,-1.6062,-0.2253,0.2912,-14.43,36.85,-19.64,9.0,-26.06,57.34,-20.09,15.64,-3.03,-20.64,5.0,26.735,,,,NaN,,,,0 / 0,633,2020-10-20 19:52:22:587
2.0287,0.4581,9.1783,3.258,0.4762,9.2374,-1.2604,-0.0226,-0.1472,-8.06,16.41,-10.61,9.0,-24.11,56.29,-21.89,14.96,-2.78,-19.43,5.0,26.735,,,,NaN,,,,0 / 0,637,2020-10-20 19:52:22:591
2.0287,0.4581,9.1783,3.258,0.4762,9.2374,-1.2604,-0.0226,-0.1472,-8.06,16.41,-10.61,9.0,-24.11,56.29,-21.89,14.96,-2.78,-19.43,5.0,26.735,,,,NaN,,,,0 / 0,643,2020-10-20 19:52:22:597
2.0287,0.4581,9.1783,3.258,0.4762,9.2374,-1.2604,-0.0226,-0.1472,-8.06,16.41,-10.61,9.0,-24.11,56.29,-21.89,14.96,-2.78,-19.43,5.0,26.735,,,,NaN,,,,0 / 0,647,2020-10-20 19:52:22:601
2.536,1.2477,8.0872,3.2716,0.4762,9.2326,-0.7648,0.7673,-1.2279,-1.06,-19.08,-2.46,9.0,-24.11,56.29,-21.89,14.96,-2.78,-19.43,5.0,26.735,,,,NaN,,,,0 / 0,653,2020-10-20 19:52:22:607
2.536,1.2477,8.0872,3.2716,0.4762,9.2326,-0.7648,0.7673,-1.2279,-1.06,-19.08,-2.46,9.0,-24.56,58.39,-19.64,14.96,-2.78,-19.43,5.0,26.735,,,,NaN,,,,0 / 0,658,2020-10-20 19:52:22:612
2.536,1.2477,8.0872,3.2716,0.4762,9.2326,-0.7648,0.7673,-1.2279,-1.06,-19.08,-2.46,9.0,-24.56,58.39,-19.64,14.96,-2.78,-19.43,5.0,26.735,,,,NaN,,,,0 / 0,662,2020-10-20 19:52:22:616
4.4311,0.5155,7.6254,3.3629,0.4764,9.1997,1.0398,0.0351,-1.6521,-2.36,-46.2,-4.66,9.0,-24.56,58.39,-19.64,14.96,-2.78,-19.43,5.0,26.735,,,,NaN,,,,0 / 0,669,2020-10-20 19:52:22:623
4.4311,0.5155,7.6254,3.3629,0.4764,9.1997,1.0398,0.0351,-1.6521,-2.36,-46.2,-4.66,9.0,-24.56,58.39,-19.64,14.96,-2.78,-19.43,5.0,26.735,,,,NaN,,,,0 / 0,673,2020-10-20 19:52:22:627
4.4311,0.5155,7.6254,3.3629,0.4764,9.1997,1.0398,0.0351,-1.6521,-2.36,-46.2,-4.66,9.0,-23.81,56.59,-20.39,15.06,-2.78,-20.08,5.0,26.735,,,,NaN,,,,0 / 0,678,2020-10-20 19:52:22:632
4.4311,0.5155,7.6254,3.3629,0.4764,9.1997,1.0398,0.0351,-1.6521,-2.36,-46.2,-4.66,9.0,-23.81,56.59,-20.39,15.06,-2.78,-20.08,5.0,26.735,,,,NaN,,,,0 / 0,683,2020-10-20 19:52:22:637
0.5332,2.6356,6.8238,3.5003,0.4744,9.1484,-2.9935,2.1576,-2.3937,-4.11,-66.99,14.24,9.0,-23.81,56.59,-20.39,15.06,-2.78,-20.08,5.0,26.735,,,,NaN,,,,0 / 0,687,2020-10-20 19:52:22:641
0.5332,2.6356,6.8238,3.5003,0.4744,9.1484,-2.9935,2.1576,-2.3937,-11.49,-62.3,36.39,9.0,-23.81,56.59,-20.39,15.06,-2.78,-20.08,5.0,26.735,,,,NaN,,,,0 / 0,693,2020-10-20 19:52:22:647
0.5332,2.6356,6.8238,3.5003,0.4744,9.1484,-2.9935,2.1576,-2.3937,-11.49,-62.3,36.39,9.0,-23.81,56.59,-20.39,15.06,-2.78,-20.08,5.0,26.735,,,,NaN,,,,0 / 0,697,2020-10-20 19:52:22:651
3.4405,0.1781,5.1368,3.7036,0.4028,9.0715,-0.2848,-0.227,-3.9879,-11.49,-62.3,36.39,9.0,-27.11,57.04,-19.64,15.06,-2.78,-20.08,5.0,26.735,,,,NaN,,,,0 / 0,703,2020-10-20 19:52:22:657
3.4405,0.1781,5.1368,3.7036,0.4028,9.0715,-0.2848,-0.227,-3.9879,-18.95,-53.31,36.18,9.0,-27.11,57.04,-19.64,15.06,-2.78,-20.08,5.0,26.735,,,,NaN,,,,0 / 0,707,2020-10-20 19:52:22:661
3.4405,0.1781,5.1368,3.7036,0.4028,9.0715,-0.2848,-0.227,-3.9879,-18.95,-53.31,36.18,9.0,-27.11,57.04,-19.64,15.06,-2.78,-20.08,5.0,26.735,,,,NaN,,,,0 / 0,713,2020-10-20 19:52:22:667
3.4429,0.7405,4.1294,3.8205,0.3122,9.0265,-0.3936,0.427,-4.9349,-29.62,-41.37,40.42,9.0,-27.11,57.04,-19.64,15.06,-2.78,-20.08,5.0,26.735,,,,NaN,,,,0 / 0,717,2020-10-20 19:52:22:671
3.4429,0.7405,4.1294,3.8205,0.3122,9.0265,-0.3936,0.427,-4.9349,-29.62,-41.37,40.42,9.0,-26.66,56.29,-19.34,17.07,-1.82,-22.94,5.0,26.735,,,,NaN,,,,0 / 0,722,2020-10-20 19:52:22:676
3.4429,0.7405,4.1294,3.8205,0.3122,9.0265,-0.3936,0.427,-4.9349,-50.73,-34.72,65.13,9.0,-26.66,56.29,-19.34,17.07,-1.82,-22.94,5.0,26.735,,,,NaN,,,,0 / 0,728,2020-10-20 19:52:22:682
1.7057,1.9752,3.7203,3.9366,0.0977,8.9813,-2.236,1.8773,-5.2725,-50.73,-34.72,65.13,9.0,-26.66,56.29,-19.34,17.07,-1.82,-22.94,5.0,26.735,,,,NaN,,,,0 / 0,733,2020-10-20 19:52:22:687
1.7057,1.9752,3.7203,3.9366,0.0977,8.9813,-2.236,1.8773,-5.2725,-64.17,-41.65,91.59,9.0,-28.76,57.94,-17.99,17.07,-1.82,-22.94,5.0,26.735,,,,NaN,,,,0 / 0,737,2020-10-20 19:52:22:691
1.7057,1.9752,3.7203,3.9366,0.0977,8.9813,-2.236,1.8773,-5.2725,-64.17,-41.65,91.59,9.0,-28.76,57.94,-17.99,17.07,-1.82,-22.94,5.0,26.735,,,,NaN,,,,0 / 0,743,2020-10-20 19:52:22:697
1.7057,1.9752,3.7203,3.9366,0.0977,8.9813,-2.236,1.8773,-5.2725,-64.17,-41.65,91.59,9.0,-28.76,57.94,-17.99,17.07,-1.82,-22.94,5.0,26.735,,,,NaN,,,,0 / 0,748,2020-10-20 19:52:22:702
6.5463,-3.0043,5.5603,4.0564,-0.1607,8.9269,2.4899,-2.8436,-3.3665,-73.79,-57.51,97.47,9.0,-28.76,57.94,-17.99,17.07,-1.82,-22.94,5.0,26.735,,,,NaN,,,,0 / 0,754,2020-10-20 19:52:22:708
6.5463,-3.0043,5.5603,4.0564,-0.1607,8.9269,2.4899,-2.8436,-3.3665,-73.79,-57.51,97.47,10.0,-26.06,59.59,-17.84,15.24,0.94,-24.44,5.0,26.735,,,,NaN,,,,0 / 0,758,2020-10-20 19:52:22:712
6.5463,-3.0043,5.5603,4.0564,-0.1607,8.9269,2.4899,-2.8436,-3.3665,-73.79,-57.51,97.47,10.0,-26.06,59.59,-17.84,15.24,0.94,-24.44,5.0,26.735,,,,NaN,,,,0 / 0,763,2020-10-20 19:52:22:717
8.5085,-3.5858,8.3504,4.2738,-0.501,8.8122,4.1435,-3.204,-1.2181,-75.3,-72.77,44.79,10.0,-26.06,59.59,-17.84,15.24,0.94,-24.44,5.0,26.735,,,,NaN,,,,0 / 0,768,2020-10-20 19:52:22:722
8.5085,-3.5858,8.3504,4.2738,-0.501,8.8122,4.1435,-3.204,-1.2181,-75.3,-72.77,44.79,10.0,-26.06,59.59,-17.84,15.24,0.94,-24.44,5.0,26.735,,,,NaN,,,,0 / 0,772,2020-10-20 19:52:22:726
8.5085,-3.5858,8.3504,4.2738,-0.501,8.8122,4.1435,-3.204,-1.2181,-75.3,-72.77,44.79,10.0,-26.06,59.59,-17.84,15.24,0.94,-24.44,5.0,26.735,,,,NaN,,,,0 / 0,779,2020-10-20 19:52:22:733
8.5085,-3.5858,8.3504,4.2738,-0.501,8.8122,4.1435,-3.204,-1.2181,-75.3,-72.77,44.79,10.0,-26.06,59.59,-17.84,15.24,0.94,-24.44,5.0,26.735,,,,NaN,,,,0 / 0,783,2020-10-20 19:52:22:737
7.0464,-2.856,9.7957,4.4535,-0.6778,8.7108,2.5884,-2.1775,1.076,-64.83,-80.22,-1.13,10.0,-28.76,61.54,-15.89,15.24,0.94,-24.44,5.0,26.735,,,,NaN,,,,0 / 0,787,2020-10-20 19:52:22:741
7.0464,-2.856,9.7957,4.4535,-0.6778,8.7108,2.5884,-2.1775,1.076,-64.83,-80.22,-1.13,10.0,-28.76,61.54,-15.89,15.24,0.94,-24.44,5.0,26.735,,,,NaN,,,,0 / 0,793,2020-10-20 19:52:22:747
7.0464,-2.856,9.7957,4.4535,-0.6778,8.7108,2.5884,-2.1775,1.076,-64.83,-80.22,-1.13,10.0,-28.76,61.54,-15.89,15.24,0.94,-24.44,5.0,26.735,,,,NaN,,,,0 / 0,798,2020-10-20 19:52:22:752
5.1896,-1.5543,9.8507,4.6411,-0.7826,8.6034,0.5406,-0.7703,1.2325,-49.61,-83.62,-19.75,10.0,-29.66,62.89,-14.54,17.65,4.58,-28.34,5.0,26.735,,,,NaN,,,,0 / 0,803,2020-10-20 19:52:22:757
5.1896,-1.5543,9.8507,4.6411,-0.7826,8.6034,0.5406,-0.7703,1.2325,-49.61,-83.62,-19.75,10.0,-29.66,62.89,-14.54,17.65,4.58,-28.34,5.0,26.735,,,,NaN,,,,0 / 0,808,2020-10-20 19:52:22:762
5.1896,-1.5543,9.8507,4.6411,-0.7826,8.6034,0.5406,-0.7703,1.2325,-49.61,-83.62,-19.75,10.0,-29.66,62.89,-14.54,17.65,4.58,-28.34,5.0,26.735,,,,NaN,,,,0 / 0,815,2020-10-20 19:52:22:769
5.1154,-1.4609,9.621,4.8343,-0.8837,8.4864,0.27,-0.5752,1.1151,-43.31,-50.65,-17.33,10.0,-29.66,62.89,-14.54,17.65,4.58,-28.34,5.0,26.735,,,,NaN,,,,0 / 0,817,2020-10-20 19:52:22:771
5.1154,-1.4609,9.621,4.8343,-0.8837,8.4864,0.27,-0.5752,1.1151,-43.31,-50.65,-17.33,10.0,-29.66,62.44,-14.99,17.65,4.58,-28.34,5.0,26.735,,,,NaN,,,,0 / 0,823,2020-10-20 19:52:22:777
5.1154,-1.4609,9.621,4.8343,-0.8837,8.4864,0.27,-0.5752,1.1151,-43.31,-50.65,-17.33,10.0,-29.66,62.44,-14.99,17.65,4.58,-28.34,5.0,26.735,,,,NaN,,,,0 / 0,828,2020-10-20 19:52:22:782
5.1154,-1.4609,9.621,4.8343,-0.8837,8.4864,0.27,-0.5752,1.1151,-43.31,-50.65,-17.33,10.0,-29.66,62.44,-14.99,17.65,4.58,-28.34,5.0,26.735,,,,NaN,,,,0 / 0,833,2020-10-20 19:52:22:787
5.271,-1.3724,10.145,4.8999,-0.967,8.4396,0.3573,-0.4027,1.6818,-48.59,-20.3,-12.12,10.0,-29.66,62.44,-14.99,17.65,4.58,-28.34,5.0,26.735,,,,NaN,,,,0 / 0,837,2020-10-20 19:52:22:791
5.271,-1.3724,10.145,4.8999,-0.967,8.4396,0.3573,-0.4027,1.6818,-48.59,-20.3,-12.12,10.0,-31.16,63.49,-14.99,17.85,5.66,-30.14,5.0,26.735,,,,NaN,,,,0 / 0,843,2020-10-20 19:52:22:797
5.271,-1.3724,10.145,4.8999,-0.967,8.4396,0.3573,-0.4027,1.6818,-48.59,-20.3,-12.12,10.0,-31.16,63.49,-14.99,17.85,5.66,-30.14,5.0,26.735,,,,NaN,,,,0 / 0,848,2020-10-20 19:52:22:802
5.5461,-1.4179,13.1025,4.9326,-1.0834,8.4063,0.5914,-0.3296,4.6585,-44.18,-13.06,-15.41,10.0,-31.16,63.49,-14.99,17.85,5.66,-30.14,5.0,26.735,,,,NaN,,,,0 / 0,853,2020-10-20 19:52:22:807
5.5461,-1.4179,13.1025,4.9326,-1.0834,8.4063,0.5914,-0.3296,4.6585,-44.18,-13.06,-15.41,10.0,-30.56,64.09,-14.69,17.85,5.66,-30.14,5.0,26.735,,,,NaN,,,,0 / 0,857,2020-10-20 19:52:22:811
5.5461,-1.4179,13.1025,4.9326,-1.0834,8.4063,0.5914,-0.3296,4.6585,-44.18,-13.06,-15.41,10.0,-30.56,64.09,-14.69,17.85,5.66,-30.14,5.0,26.735,,,,NaN,,,,0 / 0,863,2020-10-20 19:52:22:817
5.5964,-1.3461,14.409,4.9326,-1.0834,8.4063,0.5914,-0.3296,4.6585,-16.25,-28.95,-23.67,10.0,-30.56,64.09,-14.69,17.85,5.66,-30.14,5.0,26.735,,,,NaN,,,,0 / 0,867,2020-10-20 19:52:22:821
5.5964,-1.3461,14.409,4.9801,-1.1131,8.3743,0.5841,-0.2258,5.9806,-16.25,-28.95,-23.67,10.0,-30.56,64.09,-14.69,17.85,5.66,-30.14,5.0,26.735,,,,NaN,,,,0 / 0,873,2020-10-20 19:52:22:827
5.5964,-1.3461,14.409,4.9801,-1.1131,8.3743,0.5841,-0.2258,5.9806,13.04,-42.32,-27.9,11.0,-30.56,64.09,-14.69,17.85,5.66,-30.14,5.0,26.735,,,,NaN,,,,0 / 0,880,2020-10-20 19:52:22:834
5.5964,-1.3461,14.409,4.9801,-1.1131,8.3743,0.5841,-0.2258,5.9806,13.04,-42.32,-27.9,11.0,-30.56,64.09,-14.69,17.85,5.66,-30.14,5.0,26.735,,,,NaN,,,,0 / 0,883,2020-10-20 19:52:22:837
5.3021,-0.5086,11.7649,5.0958,-1.0415,8.3137,0.1628,0.5417,3.3804,13.04,-42.32,-27.9,11.0,-32.06,63.04,-12.59,19.33,6.52,-30.74,5.0,26.735,,,,NaN,,,,0 / 0,888,2020-10-20 19:52:22:842
5.3021,-0.5086,11.7649,5.0958,-1.0415,8.3137,0.1628,0.5417,3.3804,17.45,-47.57,-27.48,11.0,-32.06,63.04,-12.59,19.33,6.52,-30.74,5.0,26.735,,,,NaN,,,,0 / 0,892,2020-10-20 19:52:22:846
5.3021,-0.5086,11.7649,5.0958,-1.0415,8.3137,0.1628,0.5417,3.3804,17.45,-47.57,-27.48,11.0,-32.06,63.04,-12.59,19.33,6.52,-30.74,5.0,26.735,,,,NaN,,,,0 / 0,898,2020-10-20 19:52:22:852
5.1585,-0.1257,9.9655,5.1991,-0.9668,8.2586,-0.0881,0.8499,1.6315,13.57,-47.92,-26.5,11.0,-29.96,64.24,-12.44,19.33,6.52,-30.74,5.0,26.735,,,,NaN,,,,0 / 0,903,2020-10-20 19:52:22:857
5.1585,-0.1257,9.9655,5.1991,-0.9668,8.2586,-0.0881,0.8499,1.6315,13.57,-47.92,-26.5,11.0,-29.96,64.24,-12.44,19.33,6.52,-30.74,5.0,26.735,,,,NaN,,,,0 / 0,907,2020-10-20 19:52:22:861
5.1585,-0.1257,9.9655,5.1991,-0.9668,8.2586,-0.0881,0.8499,1.6315,13.57,-47.92,-26.5,11.0,-29.96,64.24,-12.44,19.33,6.52,-30.74,5.0,26.735,,,,NaN,,,,0 / 0,914,2020-10-20 19:52:22:868
5.3595,0.2212,9.1568,5.321,-0.9073,8.1874,-0.0126,1.1373,0.8908,-2.22,-34.34,-24.93,11.0,-29.96,62.59,-10.79,19.33,6.52,-30.74,5.0,26.735,,,,NaN,,,,0 / 0,918,2020-10-20 19:52:22:872
5.3595,0.2212,9.1568,5.321,-0.9073,8.1874,-0.0126,1.1373,0.8908,-2.22,-34.34,-24.93,11.0,-32.81,62.59,-10.79,19.33,6.52,-30.74,5.0,26.735,,,,NaN,,,,0 / 0,923,2020-10-20 19:52:22:877
5.3595,0.2212,9.1568,5.321,-0.9073,8.1874,-0.0126,1.1373,0.8908,-2.22,-34.34,-24.93,11.0,-32.81,62.59,-10.79,19.33,6.52,-30.74,5.0,26.735,,,,NaN,,,,0 / 0,928,2020-10-20 19:52:22:882
5.3595,0.2212,9.1568,5.321,-0.9073,8.1874,-0.0126,1.1373,0.8908,-2.22,-34.34,-24.93,11.0,-32.81,62.59,-10.79,19.33,6.52,-30.74,5.0,26.735,,,,NaN,,,,0 / 0,932,2020-10-20 19:52:22:886
5.1681,-0.0946,8.6136,5.3656,-0.8909,8.1601,-0.2494,0.8049,0.3746,-14.54,-11.76,-25.31,11.0,-32.81,62.59,-10.79,19.33,6.52,-30.74,5.0,26.735,,,,NaN,,,,0 / 0,938,2020-10-20 19:52:22:892
5.1681,-0.0946,8.6136,5.3656,-0.8909,8.1601,-0.2494,0.8049,0.3746,-14.54,-11.76,-25.31,11.0,-31.61,63.34,-9.74,19.38,5.21,-33.33,5.0,34.881,,,,NaN,,,,0 / 0,943,2020-10-20 19:52:22:897
5.1681,-0.0946,8.6136,5.3656,-0.8909,8.1601,-0.2494,0.8049,0.3746,-14.54,-11.76,-25.31,11.0,-31.61,63.34,-9.74,19.38,5.21,-33.33,5.0,34.881,,,,NaN,,,,0 / 0,947,2020-10-20 19:52:22:901
4.8666,-0.3555,9.1831,5.366,-0.8955,8.1593,-0.5519,0.5488,0.944,-23.81,7.87,-28.25,11.0,-31.61,63.34,-9.74,19.38,5.21,-33.33,5.0,34.881,,,,NaN,,,,0 / 0,953,2020-10-20 19:52:22:907
4.8666,-0.3555,9.1831,5.366,-0.8955,8.1593,-0.5519,0.5488,0.944,-23.81,7.87,-28.25,11.0,-31.61,63.34,-9.74,19.38,5.21,-33.33,5.0,34.881,,,,NaN,,,,0 / 0,958,2020-10-20 19:52:22:912
4.8666,-0.3555,9.1831,5.366,-0.8955,8.1593,-0.5519,0.5488,0.944,-23.81,7.87,-28.25,11.0,-32.81,61.84,-9.74,19.38,5.21,-33.33,5.0,34.881,,,,NaN,,,,0 / 0,964,2020-10-20 19:52:22:918
4.8666,-0.3555,9.1831,5.366,-0.8955,8.1593,-0.5519,0.5488,0.944,-23.81,7.87,-28.25,11.0,-32.81,61.84,-9.74,19.38,5.21,-33.33,5.0,34.881,,,,NaN,,,,0 / 0,968,2020-10-20 19:52:22:922
4.4718,-0.6426,9.5133,5.327,-0.9087,8.1834,-0.9087,0.2752,1.2477,-20.98,16.59,-24.65,11.0,-32.81,61.84,-9.74,19.38,5.21,-33.33,5.0,34.881,,,,NaN,,,,0 / 0,973,2020-10-20 19:52:22:927
4.4718,-0.6426,9.5133,5.327,-0.9087,8.1834,-0.9087,0.2752,1.2477,-20.98,16.59,-24.65,11.0,-32.81,61.84,-9.74,19.38,5.21,-33.33,5.0,34.881,,,,NaN,,,,0 / 0,977,2020-10-20 19:52:22:931
4.4718,-0.6426,9.5133,5.327,-0.9087,8.1834,-0.9087,0.2752,1.2477,-20.98,16.59,-24.65,11.0,-32.81,61.84,-9.74,19.38,5.21,-33.33,5.0,34.881,,,,NaN,,,,0 / 0,983,2020-10-20 19:52:22:937
4.4909,-0.7431,9.4654,5.3003,-0.9116,8.2004,-0.8637,0.1779,1.181,-14.85,11.27,-23.7,11.0,-32.81,61.84,-9.74,20.6,5.33,-32.88,5.0,34.881,,,,NaN,,,,0 / 0,988,2020-10-20 19:52:22:942
4.4909,-0.7431,9.4654,5.3003,-0.9116,8.2004,-0.8637,0.1779,1.181,-14.85,11.27,-23.7,11.0,-32.81,61.84,-9.74,20.6,5.33,-32.88,5.0,34.881,,,,NaN,,,,0 / 0,993,2020-10-20 19:52:22:947
4.4909,-0.7431,9.4654,5.3003,-0.9116,8.2004,-0.8637,0.1779,1.181,-14.85,11.27,-23.7,11.0,-32.81,61.84,-9.74,20.6,5.33,-32.88,5.0,34.881,,,,NaN,,,,0 / 0,998,2020-10-20 19:52:22:952
4.3569,-0.6593,8.6447,5.2925,-0.8992,8.2068,-0.9932,0.2428,0.3549,-4.88,-3.89,-20.94,11.0,-32.81,61.24,-12.29,20.6,5.33,-32.88,5.0,34.881,,,,NaN,,,,0 / 0,1003,2020-10-20 19:52:22:957
4.3569,-0.6593,8.6447,5.2925,-0.8992,8.2068,-0.9932,0.2428,0.3549,-4.88,-3.89,-20.94,11.0,-32.81,61.24,-12.29,20.6,5.33,-32.88,5.0,34.881,,,,NaN,,,,0 / 0,1008,2020-10-20 19:52:22:962
4.3569,-0.6593,8.6447,5.2925,-0.8992,8.2068,-0.9932,0.2428,0.3549,-4.88,-3.89,-20.94,11.0,-32.81,61.24,-12.29,20.6,5.33,-32.88,5.0,34.881,,,,NaN,,,,0 / 0,1013,2020-10-20 19:52:22:967
4.3569,-0.6593,8.6447,5.2925,-0.8992,8.2068,-0.9932,0.2428,0.3549,-4.88,-3.89,-20.94,11.0,-32.81,61.24,-12.29,20.6,5.33,-32.88,5.0,34.881,,,,NaN,,,,0 / 0,1018,2020-10-20 19:52:22:972
4.656,-0.7048,8.1781,5.32,-0.8731,8.1918,-0.7179,0.1772,-0.0966,-2.67,-13.37,-18.8,11.0,-31.31,61.54,-11.09,18.61,5.11,-33.0,5.0,34.881,,,,NaN,,,,0 / 0,1023,2020-10-20 19:52:22:977
4.656,-0.7048,8.1781,5.32,-0.8731,8.1918,-0.7179,0.1772,-0.0966,-2.67,-13.37,-18.8,11.0,-31.31,61.54,-11.09,18.61,5.11,-33.0,5.0,34.881,,,,NaN,,,,0 / 0,1027,2020-10-20 19:52:22:981
4.656,-0.7048,8.1781,5.32,-0.8731,8.1918,-0.7179,0.1772,-0.0966,-2.67,-13.37,-18.8,11.0,-31.31,61.54,-11.09,18.61,5.11,-33.0,5.0,34.881,,,,NaN,,,,0 / 0,1033,2020-10-20 19:52:22:987
4.5842,-0.8388,7.5057,5.3681,-0.8452,8.1633,-0.836,0.0146,-0.7369,-1.03,-17.08,-16.81,11.0,-31.31,61.54,-11.09,18.61,5.11,-33.0,5.0,34.881,,,,NaN,,,,0 / 0,1038,2020-10-20 19:52:22:992
4.5842,-0.8388,7.5057,5.3681,-0.8452,8.1633,-0.836,0.0146,-0.7369,-1.03,-17.08,-16.81,11.0,-32.51,61.69,-11.69,18.61,5.11,-33.0,5.0,34.881,,,,NaN,,,,0 / 0,1043,2020-10-20 19:52:22:997
4.5842,-0.8388,7.5057,5.3681,-0.8452,8.1633,-0.836,0.0146,-0.7369,-1.03,-17.08,-16.81,11.0,-32.51,61.69,-11.69,18.61,5.11,-33.0,5.0,34.881,,,,NaN,,,,0 / 0,1048,2020-10-20 19:52:23:002
4.211,-1.0877,6.4218,5.4046,-0.8283,8.1409,-1.2425,-0.2519,-1.7926,-2.25,-15.54,-14.57,11.0,-32.51,61.69,-11.69,18.61,5.11,-33.0,5.0,34.881,,,,NaN,,,,0 / 0,1053,2020-10-20 19:52:23:007
4.211,-1.0877,6.4218,5.4046,-0.8283,8.1409,-1.2425,-0.2519,-1.7926,-2.25,-15.54,-14.57,11.0,-32.51,61.69,-11.69,18.61,5.11,-33.0,5.0,34.881,,,,NaN,,,,0 / 0,1057,2020-10-20 19:52:23:011
3.7635,-1.1762,5.0674,5.4382,-0.8286,8.1185,-1.7274,-0.3342,-3.1028,-11.42,-16.8,-3.19,11.0,-32.81,60.49,-10.79,20.43,4.84,-33.58,5.0,34.881,,,,NaN,,,,0 / 0,1067,2020-10-20 19:52:23:021
3.7635,-1.1762,5.0674,5.4382,-0.8286,8.1185,-1.7274,-0.3342,-3.1028,-11.42,-16.8,-3.19,11.0,-32.81,60.49,-10.79,20.43,4.84,-33.58,5.0,34.881,,,,NaN,,,,0 / 0,1067,2020-10-20 19:52:23:021
3.7635,-1.1762,5.0674,5.4382,-0.8286,8.1185,-1.7274,-0.3342,-3.1028,-11.42,-16.8,-3.19,11.0,-32.81,60.49,-10.79,20.43,4.84,-33.58,5.0,34.881,,,,NaN,,,,0 / 0,1072,2020-10-20 19:52:23:026
3.7635,-1.1762,5.0674,5.4382,-0.8286,8.1185,-1.7274,-0.3342,-3.1028,-11.42,-16.8,-3.19,11.0,-32.81,60.49,-10.79,20.43,4.84,-33.58,5.0,34.881,,,,NaN,,,,0 / 0,1078,2020-10-20 19:52:23:032
3.7635,-1.1762,5.0674,5.4382,-0.8286,8.1185,-1.7274,-0.3342,-3.1028,-11.42,-16.8,-3.19,11.0,-32.81,60.49,-10.79,20.43,4.84,-33.58,5.0,34.881,,,,NaN,,,,0 / 0,1083,2020-10-20 19:52:23:037
3.9358,-1.4968,5.0507,5.4923,-0.8829,8.0762,-1.5902,-0.6085,-3.075,-23.22,-22.54,6.19,11.0,-32.06,61.54,-10.04,20.43,4.84,-33.58,5.0,34.881,,,,NaN,,,,0 / 0,1092,2020-10-20 19:52:23:046
3.9358,-1.4968,5.0507,5.4923,-0.8829,8.0762,-1.5902,-0.6085,-3.075,-23.22,-22.54,6.19,11.0,-32.06,61.54,-10.04,20.43,4.84,-33.58,5.0,34.881,,,,NaN,,,,0 / 0,1092,2020-10-20 19:52:23:046
3.9358,-1.4968,5.0507,5.4923,-0.8829,8.0762,-1.5902,-0.6085,-3.075,-23.22,-22.54,6.19,11.0,-32.06,61.54,-10.04,20.43,4.84,-33.58,5.0,34.881,,,,NaN,,,,0 / 0,1098,2020-10-20 19:52:23:052
4.1535,-1.8031,5.8618,5.552,-0.9591,8.0266,-1.4267,-0.8392,-2.2054,-28.12,-35.35,14.34,11.0,-32.06,61.84,-7.79,20.16,5.61,-34.67,5.0,34.881,,,,NaN,,,,0 / 0,1103,2020-10-20 19:52:23:057
4.1535,-1.8031,5.8618,5.552,-0.9591,8.0266,-1.4267,-0.8392,-2.2054,-28.12,-35.35,14.34,11.0,-32.06,61.84,-7.79,20.16,5.61,-34.67,5.0,34.881,,,,NaN,,,,0 / 0,1108,2020-10-20 19:52:23:062
4.1535,-1.8031,5.8618,5.552,-0.9591,8.0266,-1.4267,-0.8392,-2.2054,-28.12,-35.35,14.34,11.0,-32.06,61.84,-7.79,20.16,5.61,-34.67,5.0,34.881,,,,NaN,,,,0 / 0,1112,2020-10-20 19:52:23:066
4.1535,-1.8031,5.8618,5.552,-0.9591,8.0266,-1.4267,-0.8392,-2.2054,-28.12,-35.35,14.34,11.0,-32.06,61.84,-7.79,20.16,5.61,-34.67,5.0,34.881,,,,NaN,,,,0 / 0,1117,2020-10-20 19:52:23:071
4.5842,-2.0017,4.8593,5.6647,-1.0761,7.9324,-1.1014,-0.9216,-3.1025,-27.35,-46.69,22.25,11.0,-33.56,62.29,-8.99,20.16,5.61,-34.67,5.0,34.881,,,,NaN,,,,0 / 0,1123,2020-10-20 19:52:23:077
4.5842,-2.0017,4.8593,5.6647,-1.0761,7.9324,-1.1014,-0.9216,-3.1025,-27.35,-46.69,22.25,11.0,-33.56,62.29,-8.99,20.16,5.61,-34.67,5.0,34.881,,,,NaN,,,,0 / 0,1128,2020-10-20 19:52:23:082
4.5842,-2.0017,4.8593,5.6647,-1.0761,7.9324,-1.1014,-0.9216,-3.1025,-27.35,-46.69,22.25,11.0,-33.56,62.29,-8.99,20.16,5.61,-34.67,5.0,34.881,,,,NaN,,,,0 / 0,1133,2020-10-20 19:52:23:087
4.455,-2.1142,4.0983,5.7605,-1.1804,7.8481,-1.3191,-0.931,-3.7682,-33.09,-52.29,28.06,11.0,-33.56,62.29,-8.99,20.16,5.61,-34.67,5.0,34.881,,,,NaN,,,,0 / 0,1138,2020-10-20 19:52:23:092
4.455,-2.1142,4.0983,5.7605,-1.1804,7.8481,-1.3191,-0.931,-3.7682,-33.09,-52.29,28.06,11.0,-33.86,63.79,-7.79,20.6,6.91,-36.28,5.0,34.881,,,,NaN,,,,0 / 0,1143,2020-10-20 19:52:23:097
4.455,-2.1142,4.0983,5.7605,-1.1804,7.8481,-1.3191,-0.931,-3.7682,-33.09,-52.29,28.06,11.0,-33.86,63.79,-7.79,20.6,6.91,-36.28,5.0,34.881,,,,NaN,,,,0 / 0,1148,2020-10-20 19:52:23:102
4.2086,-2.4061,3.4977,5.9122,-1.3565,7.7056,-1.7055,-1.0491,-4.2102,-42.05,-68.32,37.16,11.0,-33.86,63.79,-7.79,20.6,6.91,-36.28,5.0,34.881,,,,NaN,,,,0 / 0,1153,2020-10-20 19:52:23:107
4.2086,-2.4061,3.4977,5.9122,-1.3565,7.7056,-1.7055,-1.0491,-4.2102,-42.05,-68.32,37.16,11.0,-33.86,63.79,-7.79,20.6,6.91,-36.28,5.0,34.881,,,,NaN,,,,0 / 0,1158,2020-10-20 19:52:23:112
4.2086,-2.4061,3.4977,5.9122,-1.3565,7.7056,-1.7055,-1.0491,-4.2102,-42.05,-68.32,37.16,11.0,-33.56,63.34,-5.99,20.6,6.91,-36.28,5.0,34.881,,,,NaN,,,,0 / 0,1163,2020-10-20 19:52:23:117
4.3641,-2.6167,3.3063,6.0508,-1.5172,7.5668,-1.6788,-1.1015,-4.2507,-48.14,-82.74,45.84,11.0,-33.56,63.34,-5.99,20.6,6.91,-36.28,5.0,34.881,,,,NaN,,,,0 / 0,1167,2020-10-20 19:52:23:121
4.3641,-2.6167,3.3063,6.0508,-1.5172,7.5668,-1.6788,-1.1015,-4.2507,-48.14,-82.74,45.84,11.0,-33.56,63.34,-5.99,20.6,6.91,-36.28,5.0,34.881,,,,NaN,,,,0 / 0,1173,2020-10-20 19:52:23:127
4.3641,-2.6167,3.3063,6.0508,-1.5172,7.5668,-1.6788,-1.1015,-4.2507,-56.08,-96.04,54.0,11.0,-33.56,63.34,-5.99,20.6,6.91,-36.28,5.0,34.881,,,,NaN,,,,0 / 0,1177,2020-10-20 19:52:23:131
4.3641,-2.6167,3.3063,6.0508,-1.5172,7.5668,-1.6788,-1.1015,-4.2507,-56.08,-96.04,54.0,11.0,-33.56,63.34,-5.99,20.6,6.91,-36.28,5.0,34.881,,,,NaN,,,,0 / 0,1182,2020-10-20 19:52:23:136
5.6155,-2.9182,3.5193,6.2635,-1.7735,7.3344,-0.6286,-1.1501,-3.7924,-62.87,-102.73,57.5,11.0,-34.76,65.44,-7.34,20.95,8.9,-38.65,5.0,34.881,,,,NaN,,,,0 / 0,1188,2020-10-20 19:52:23:142
5.6155,-2.9182,3.5193,6.2635,-1.7735,7.3344,-0.6286,-1.1501,-3.7924,-62.87,-102.73,57.5,11.0,-34.76,65.44,-7.34,20.95,8.9,-38.65,5.0,34.881,,,,NaN,,,,0 / 0,1193,2020-10-20 19:52:23:147
5.6155,-2.9182,3.5193,6.2635,-1.7735,7.3344,-0.6286,-1.1501,-3.7924,-62.87,-102.73,57.5,11.0,-34.76,65.44,-7.34,20.95,8.9,-38.65,5.0,34.881,,,,NaN,,,,0 / 0,1197,2020-10-20 19:52:23:151
6.5631,-3.3321,3.4188,6.4309,-1.9971,7.1292,0.1583,-1.3432,-3.6814,-71.76,-103.25,59.0,11.0,-35.81,66.49,-2.99,20.95,8.9,-38.65,5.0,34.881,,,,NaN,,,,0 / 0,1203,2020-10-20 19:52:23:157
6.5631,-3.3321,3.4188,6.4309,-1.9971,7.1292,0.1583,-1.3432,-3.6814,-71.76,-103.25,59.0,11.0,-35.81,66.49,-2.99,20.95,8.9,-38.65,5.0,34.881,,,,NaN,,,,0 / 0,1208,2020-10-20 19:52:23:162
6.5631,-3.3321,3.4188,6.4309,-1.9971,7.1292,0.1583,-1.3432,-3.6814,-86.29,-89.67,55.57,11.0,-35.81,66.49,-2.99,20.95,8.9,-38.65,5.0,34.881,,,,NaN,,,,0 / 0,1213,2020-10-20 19:52:23:167
7.1326,-3.8729,4.3424,6.6166,-2.3288,6.8533,0.5477,-1.5552,-2.4782,-86.29,-89.67,55.57,11.0,-35.81,66.49,-2.99,20.95,8.9,-38.65,5.0,34.881,,,,NaN,,,,0 / 0,1218,2020-10-20 19:52:23:172
7.1326,-3.8729,4.3424,6.6166,-2.3288,6.8533,0.5477,-1.5552,-2.4782,-94.37,-86.73,50.95,11.0,-35.21,68.29,-2.24,21.65,13.74,-43.99,5.0,34.881,,,,NaN,,,,0 / 0,1222,2020-10-20 19:52:23:176
7.1326,-3.8729,4.3424,6.6166,-2.3288,6.8533,0.5477,-1.5552,-2.4782,-94.37,-86.73,50.95,11.0,-35.21,68.29,-2.24,21.65,13.74,-43.99,5.0,34.881,,,,NaN,,,,0 / 0,1228,2020-10-20 19:52:23:182
6.2137,-3.8992,4.9574,6.7384,-2.585,6.6394,-0.4899,-1.3275,-1.6478,-98.71,-89.53,49.52,11.0,-35.21,68.29,-2.24,21.65,13.74,-43.99,5.0,34.881,,,,NaN,,,,0 / 0,1234,2020-10-20 19:52:23:188
6.2137,-3.8992,4.9574,6.7384,-2.585,6.6394,-0.4899,-1.3275,-1.6478,-98.71,-89.53,49.52,11.0,-35.21,68.29,-2.24,21.65,13.74,-43.99,5.0,34.881,,,,NaN,,,,0 / 0,1237,2020-10-20 19:52:23:191
6.2137,-3.8992,4.9574,6.7384,-2.585,6.6394,-0.4899,-1.3275,-1.6478,-98.71,-89.53,49.52,12.0,-37.01,69.34,0.61,21.65,13.74,-43.99,5.0,34.881,,,,NaN,,,,0 / 0,1243,2020-10-20 19:52:23:197
6.2137,-3.8992,4.9574,6.7384,-2.585,6.6394,-0.4899,-1.3275,-1.6478,-98.71,-89.53,49.52,12.0,-37.01,69.34,0.61,21.65,13.74,-43.99,5.0,34.881,,,,NaN,,,,0 / 0,1248,2020-10-20 19:52:23:202
5.8811,-4.5716,4.8353,6.8563,-2.85,6.4062,-0.9368,-1.7376,-1.5351,-101.69,-94.85,55.29,12.0,-37.01,69.34,0.61,21.65,13.74,-43.99,5.0,34.881,,,,NaN,,,,0 / 0,1253,2020-10-20 19:52:23:207
5.8811,-4.5716,4.8353,6.8563,-2.85,6.4062,-0.9368,-1.7376,-1.5351,-101.69,-94.85,55.29,12.0,-37.01,69.34,0.61,21.65,13.74,-43.99,5.0,34.881,,,,NaN,,,,0 / 0,1258,2020-10-20 19:52:23:212
5.8811,-4.5716,4.8353,6.8563,-2.85,6.4062,-0.9368,-1.7376,-1.5351,-107.08,-96.95,65.83,12.0,-36.26,70.54,2.56,23.73,16.89,-46.94,5.0,34.881,,,,NaN,,,,0 / 0,1264,2020-10-20 19:52:23:218
5.8811,-4.5716,4.8353,6.8563,-2.85,6.4062,-0.9368,-1.7376,-1.5351,-107.08,-96.95,65.83,12.0,-36.26,70.54,2.56,23.73,16.89,-46.94,5.0,34.881,,,,NaN,,,,0 / 0,1268,2020-10-20 19:52:23:222
6.2975,-4.763,5.9336,6.9912,-3.2328,6.0698,-0.6526,-1.5493,-0.1004,-108.27,-96.6,68.8,12.0,-36.26,70.54,2.56,23.73,16.89,-46.94,5.0,25.199,,,,NaN,,,,0 / 0,1273,2020-10-20 19:52:23:227
6.2975,-4.763,5.9336,6.9912,-3.2328,6.0698,-0.6526,-1.5493,-0.1004,-108.27,-96.6,68.8,12.0,-36.26,70.54,2.56,23.73,16.89,-46.94,5.0,25.199,,,,NaN,,,,0 / 0,1278,2020-10-20 19:52:23:232
6.2975,-4.763,5.9336,6.9912,-3.2328,6.0698,-0.6526,-1.5493,-0.1004,-108.27,-96.6,68.8,12.0,-36.26,70.54,2.56,23.73,16.89,-46.94,5.0,25.199,,,,NaN,,,,0 / 0,1283,2020-10-20 19:52:23:237
7.2762,-5.1507,5.7781,7.0591,-3.5328,5.8189,0.2571,-1.6379,-0.0078,-110.44,-80.12,74.93,12.0,-35.51,70.54,5.11,23.73,16.89,-46.94,5.0,25.199,,,,NaN,,,,0 / 0,1288,2020-10-20 19:52:23:242
7.2762,-5.1507,5.7781,7.0591,-3.5328,5.8189,0.2571,-1.6379,-0.0078,-110.44,-80.12,74.93,12.0,-35.51,70.54,5.11,23.73,16.89,-46.94,5.0,25.199,,,,NaN,,,,0 / 0,1293,2020-10-20 19:52:23:247
7.2762,-5.1507,5.7781,7.0591,-3.5328,5.8189,0.2571,-1.6379,-0.0078,-110.44,-80.12,74.93,12.0,-35.51,70.54,5.11,23.73,16.89,-46.94,5.0,25.199,,,,NaN,,,,0 / 0,1298,2020-10-20 19:52:23:252
8.1065,-5.4857,5.0411,7.0535,-3.9527,5.5493,1.089,-1.5532,-0.4799,-126.57,-24.85,78.92,12.0,-35.51,74.14,6.91,25.55,23.77,-51.81,5.0,25.199,,,,NaN,,,,0 / 0,1303,2020-10-20 19:52:23:257
8.1065,-5.4857,5.0411,7.0535,-3.9527,5.5493,1.089,-1.5532,-0.4799,-126.57,-24.85,78.92,12.0,-35.51,74.14,6.91,25.55,23.77,-51.81,5.0,25.199,,,,NaN,,,,0 / 0,1308,2020-10-20 19:52:23:262
8.1065,-5.4857,5.0411,7.0535,-3.9527,5.5493,1.089,-1.5532,-0.4799,-126.57,-24.85,78.92,12.0,-35.51,74.14,6.91,25.55,23.77,-51.81,5.0,25.199,,,,NaN,,,,0 / 0,1313,2020-10-20 19:52:23:267
8.1065,-5.4857,5.0411,7.0535,-3.9527,5.5493,1.089,-1.5532,-0.4799,-126.57,-24.85,78.92,12.0,-35.51,74.14,6.91,25.55,23.77,-51.81,5.0,25.199,,,,NaN,,,,0 / 0,1318,2020-10-20 19:52:23:272
7.8839,-6.5624,4.9813,6.9466,-4.2946,5.4287,0.9693,-2.2876,-0.4224,-150.51,43.29,77.62,12.0,-35.51,74.14,6.91,25.55,23.77,-51.81,5.0,25.199,,,,NaN,,,,0 / 0,1323,2020-10-20 19:52:23:277
7.8839,-6.5624,4.9813,6.9466,-4.2946,5.4287,0.9693,-2.2876,-0.4224,-150.51,43.29,77.62,12.0,-36.26,74.59,5.41,25.55,23.77,-51.81,5.0,25.199,,,,NaN,,,,0 / 0,1328,2020-10-20 19:52:23:282
7.8839,-6.5624,4.9813,6.9466,-4.2946,5.4287,0.9693,-2.2876,-0.4224,-150.51,43.29,77.62,12.0,-36.26,74.59,5.41,25.55,23.77,-51.81,5.0,25.199,,,,NaN,,,,0 / 0,1333,2020-10-20 19:52:23:287
6.7043,-7.2252,7.5153,6.636,-4.7804,5.4112,0.0915,-2.4616,2.123,-172.11,133.56,73.21,12.0,-36.26,74.59,5.41,25.55,23.77,-51.81,5.0,25.199,,,,NaN,,,,0 / 0,1338,2020-10-20 19:52:23:292
6.7043,-7.2252,7.5153,6.636,-4.7804,5.4112,0.0915,-2.4616,2.123,-172.11,133.56,73.21,12.0,-34.46,75.19,6.16,25.63,29.17,-50.81,5.0,25.199,,,,NaN,,,,0 / 0,1343,2020-10-20 19:52:23:297
6.7043,-7.2252,7.5153,6.636,-4.7804,5.4112,0.0915,-2.4616,2.123,-172.11,133.56,73.21,12.0,-34.46,75.19,6.16,25.63,29.17,-50.81,5.0,25.199,,,,NaN,,,,0 / 0,1347,2020-10-20 19:52:23:301
6.0821,-6.6318,9.5324,6.3255,-5.1271,5.4654,-0.2278,-1.5173,4.0805,-166.68,164.71,65.93,12.0,-34.46,75.19,6.16,25.63,29.17,-50.81,5.0,25.199,,,,NaN,,,,0 / 0,1352,2020-10-20 19:52:23:306
6.0821,-6.6318,9.5324,6.3255,-5.1271,5.4654,-0.2278,-1.5173,4.0805,-166.68,164.71,65.93,12.0,-34.46,75.19,6.16,25.63,29.17,-50.81,5.0,25.199,,,,NaN,,,,0 / 0,1358,2020-10-20 19:52:23:312
6.0821,-6.6318,9.5324,6.3255,-5.1271,5.4654,-0.2278,-1.5173,4.0805,-166.68,164.71,65.93,12.0,-34.46,75.19,6.16,25.63,29.17,-50.81,5.0,25.199,,,,NaN,,,,0 / 0,1363,2020-10-20 19:52:23:317
6.0773,-6.5218,10.2192,6.003,-5.4533,5.5133,0.0818,-1.0753,4.7128,-149.85,152.43,74.82,11.0,-33.11,78.79,4.06,25.63,29.17,-50.81,5.0,25.199,,,,NaN,,,,0 / 0,1368,2020-10-20 19:52:23:322
6.0773,-6.5218,10.2192,6.003,-5.4533,5.5133,0.0818,-1.0753,4.7128,-149.85,152.43,74.82,11.0,-33.11,78.79,4.06,25.63,29.17,-50.81,5.0,25.199,,,,NaN,,,,0 / 0,1373,2020-10-20 19:52:23:327
6.0773,-6.5218,10.2192,6.003,-5.4533,5.5133,0.0818,-1.0753,4.7128,-149.85,152.43,74.82,11.0,-33.11,78.79,4.06,25.63,29.17,-50.81,5.0,25.199,,,,NaN,,,,0 / 0,1378,2020-10-20 19:52:23:332
6.0773,-6.5218,10.2192,6.003,-5.4533,5.5133,0.0818,-1.0753,4.7128,-149.85,152.43,74.82,11.0,-33.11,78.79,4.06,25.63,29.17,-50.81,5.0,25.199,,,,NaN,,,,0 / 0,1383,2020-10-20 19:52:23:337
7.1972,-7.9239,11.875,5.5754,-5.8373,5.5688,1.6154,-2.0798,6.2998,-120.38,151.87,65.51,11.0,-31.91,80.74,5.11,25.96,36.53,-45.03,5.0,25.199,,,,NaN,,,,0 / 0,1388,2020-10-20 19:52:23:342
7.1972,-7.9239,11.875,5.5754,-5.8373,5.5688,1.6154,-2.0798,6.2998,-120.38,151.87,65.51,11.0,-31.91,80.74,5.11,25.96,36.53,-45.03,5.0,25.199,,,,NaN,,,,0 / 0,1393,2020-10-20 19:52:23:347
7.1972,-7.9239,11.875,5.5754,-5.8373,5.5688,1.6154,-2.0798,6.2998,-120.38,151.87,65.51,11.0,-31.91,80.74,5.11,25.96,36.53,-45.03,5.0,25.199,,,,NaN,,,,0 / 0,1402,2020-10-20 19:52:23:356
7.1972,-7.9239,11.875,5.5754,-5.8373,5.5688,1.6154,-2.0798,6.2998,-120.38,151.87,65.51,11.0,-31.91,80.74,5.11,25.96,36.53,-45.03,5.0,25.199,,,,NaN,,,,0 / 0,1403,2020-10-20 19:52:23:357
2.9284,-8.8643,11.339,5.0951,-6.1045,5.7398,-2.1855,-2.7373,5.578,-75.19,225.58,48.47,11.0,-29.51,81.34,1.21,25.96,36.53,-45.03,5.0,25.199,,,,NaN,,,,0 / 0,1408,2020-10-20 19:52:23:362
2.9284,-8.8643,11.339,5.0951,-6.1045,5.7398,-2.1855,-2.7373,5.578,-75.19,225.58,48.47,11.0,-29.51,81.34,1.21,25.96,36.53,-45.03,5.0,25.199,,,,NaN,,,,0 / 0,1413,2020-10-20 19:52:23:367
2.9284,-8.8643,11.339,5.0951,-6.1045,5.7398,-2.1855,-2.7373,5.578,-75.19,225.58,48.47,11.0,-29.51,81.34,1.21,25.96,36.53,-45.03,5.0,25.199,,,,NaN,,,,0 / 0,1418,2020-10-20 19:52:23:372
0.1503,-7.8043,9.5085,4.5736,-6.2798,5.9847,-4.4435,-1.4967,3.4973,-66.58,293.02,68.14,11.0,-28.16,84.04,-1.49,22.16,39.82,-37.39,5.0,25.199,,,,NaN,,,,0 / 0,1423,2020-10-20 19:52:23:377
0.1503,-7.8043,9.5085,4.5736,-6.2798,5.9847,-4.4435,-1.4967,3.4973,-66.58,293.02,68.14,11.0,-28.16,84.04,-1.49,22.16,39.82,-37.39,5.0,25.199,,,,NaN,,,,0 / 0,1428,2020-10-20 19:52:23:382
0.1503,-7.8043,9.5085,4.5736,-6.2798,5.9847,-4.4435,-1.4967,3.4973,-66.58,293.02,68.14,11.0,-28.16,84.04,-1.49,22.16,39.82,-37.39,5.0,25.199,,,,NaN,,,,0 / 0,1433,2020-10-20 19:52:23:387
1.7104,-8.3379,8.1231,3.9339,-6.4949,6.2058,-2.2424,-1.8118,1.8874,-88.46,332.05,86.09,11.0,-28.16,84.04,-1.49,22.16,39.82,-37.39,5.0,25.199,,,,NaN,,,,0 / 0,1438,2020-10-20 19:52:23:392
1.7104,-8.3379,8.1231,3.9339,-6.4949,6.2058,-2.2424,-1.8118,1.8874,-88.46,332.05,86.09,11.0,-26.21,84.19,-4.94,22.16,39.82,-37.39,5.0,25.199,,,,NaN,,,,0 / 0,1443,2020-10-20 19:52:23:397
1.7104,-8.3379,8.1231,3.9339,-6.4949,6.2058,-2.2424,-1.8118,1.8874,-88.46,332.05,86.09,11.0,-26.21,84.19,-4.94,22.16,39.82,-37.39,5.0,25.199,,,,NaN,,,,0 / 0,1448,2020-10-20 19:52:23:402
1.7104,-8.3379,8.1231,3.9339,-6.4949,6.2058,-2.2424,-1.8118,1.8874,-88.46,332.05,86.09,11.0,-26.21,84.19,-4.94,22.16,39.82,-37.39,5.0,25.199,,,,NaN,,,,0 / 0,1452,2020-10-20 19:52:23:406
2.3087,-9.4625,9.7789,2.9743,-6.8194,6.389,-0.685,-2.5988,3.3484,-110.02,364.67,82.59,11.0,-26.21,84.19,-4.94,22.16,39.82,-37.39,5.0,25.199,,,,NaN,,,,0 / 0,1457,2020-10-20 19:52:23:411
2.3087,-9.4625,9.7789,2.9743,-6.8194,6.389,-0.685,-2.5988,3.3484,-110.02,364.67,82.59,11.0,-26.21,84.19,-4.94,22.16,39.82,-37.39,5.0,25.199,,,,NaN,,,,0 / 0,1463,2020-10-20 19:52:23:417
2.3087,-9.4625,9.7789,2.9743,-6.8194,6.389,-0.685,-2.5988,3.3484,-110.02,364.67,82.59,11.0,-26.21,84.19,-4.94,22.16,39.82,-37.39,5.0,25.199,,,,NaN,,,,0 / 0,1468,2020-10-20 19:52:23:422
0.4064,-9.2998,9.3434,2.2265,-7.0519,6.4408,-1.8374,-2.1932,2.8527,-110.16,368.83,80.32,11.0,-22.91,87.19,-9.74,20.94,45.98,-19.07,5.0,25.199,,,,NaN,,,,0 / 0,1474,2020-10-20 19:52:23:428
0.4064,-9.2998,9.3434,2.2265,-7.0519,6.4408,-1.8374,-2.1932,2.8527,-110.16,368.83,80.32,11.0,-22.91,87.19,-9.74,20.94,45.98,-19.07,5.0,25.199,,,,NaN,,,,0 / 0,1478,2020-10-20 19:52:23:432
0.4064,-9.2998,9.3434,2.2265,-7.0519,6.4408,-1.8374,-2.1932,2.8527,-110.16,368.83,80.32,11.0,-22.91,87.19,-9.74,20.94,45.98,-19.07,5.0,25.199,,,,NaN,,,,0 / 0,1483,2020-10-20 19:52:23:437
-1.9793,-9.4769,5.8355,1.1921,-7.3731,6.355,-3.1816,-2.041,-0.5736,-137.67,375.76,92.95,30.0,-17.36,86.44,-12.89,20.94,45.98,-19.07,5.0,25.199,,,,NaN,,,,0 / 0,1487,2020-10-20 19:52:23:441
-1.9793,-9.4769,5.8355,1.1921,-7.3731,6.355,-3.1816,-2.041,-0.5736,-137.67,375.76,92.95,30.0,-17.36,86.44,-12.89,20.94,45.98,-19.07,5.0,25.199,,,,NaN,,,,0 / 0,1492,2020-10-20 19:52:23:446
-1.9793,-9.4769,5.8355,1.1921,-7.3731,6.355,-3.1816,-2.041,-0.5736,-137.67,375.76,92.95,30.0,-17.36,86.44,-12.89,20.94,45.98,-19.07,5.0,25.199,,,,NaN,,,,0 / 0,1498,2020-10-20 19:52:23:452
-1.9793,-9.4769,5.8355,1.1921,-7.3731,6.355,-3.1816,-2.041,-0.5736,-137.67,375.76,92.95,30.0,-17.36,86.44,-12.89,20.94,45.98,-19.07,5.0,25.199,,,,NaN,,,,0 / 0,1503,2020-10-20 19:52:23:457
-3.927,-10.5034,7.6947,0.3884,-7.6477,6.1263,-4.3191,-2.7842,1.5112,-165.84,382.13,97.33,30.0,-12.41,89.14,-13.79,14.08,51.25,-3.63,5.0,25.199,,,,NaN,,,,0 / 0,1508,2020-10-20 19:52:23:462
-3.927,-10.5034,7.6947,0.3884,-7.6477,6.1263,-4.3191,-2.7842,1.5112,-165.84,382.13,97.33,30.0,-12.41,89.14,-13.79,14.08,51.25,-3.63,5.0,25.199,,,,NaN,,,,0 / 0,1512,2020-10-20 19:52:23:466
-6.0758,-11.049,10.2264,-0.6364,-7.9611,5.6909,-5.432,-2.9949,4.4689,-151.84,324.31,123.58,30.0,-12.41,89.14,-13.79,14.08,51.25,-3.63,5.0,25.199,,,,NaN,,,,0 / 0,1518,2020-10-20 19:52:23:472
-6.0758,-11.049,10.2264,-0.6364,-7.9611,5.6909,-5.432,-2.9949,4.4689,-151.84,324.31,123.58,30.0,-6.56,93.94,-16.34,14.08,51.25,-3.63,5.0,25.199,,,,NaN,,,,0 / 0,1525,2020-10-20 19:52:23:479
-6.0758,-11.049,10.2264,-0.6364,-7.9611,5.6909,-5.432,-2.9949,4.4689,-151.84,324.31,123.58,30.0,-6.56,93.94,-16.34,14.08,51.25,-3.63,5.0,25.199,,,,NaN,,,,0 / 0,1527,2020-10-20 19:52:23:481
-6.0758,-11.049,10.2264,-0.6364,-7.9611,5.6909,-5.432,-2.9949,4.4689,-151.84,324.31,123.58,30.0,-6.56,93.94,-16.34,14.08,51.25,-3.63,5.0,25.199,,,,NaN,,,,0 / 0,1533,2020-10-20 19:52:23:487
-6.0758,-11.049,10.2264,-0.6364,-7.9611,5.6909,-5.432,-2.9949,4.4689,-151.84,324.31,123.58,30.0,-6.56,93.94,-16.34,14.08,51.25,-3.63,5.0,25.199,,,,NaN,,,,0 / 0,1538,2020-10-20 19:52:23:492
-5.1498,-10.8241,8.8122,-1.3364,-8.1017,5.3616,-3.7952,-2.6124,3.3778,-121.53,244.93,162.6,30.0,-2.66,96.49,-16.34,9.2,55.7,14.0,5.0,25.199,,,,NaN,,,,0 / 0,1545,2020-10-20 19:52:23:499
-5.1498,-10.8241,8.8122,-1.3364,-8.1017,5.3616,-3.7952,-2.6124,3.3778,-121.53,244.93,162.6,30.0,-2.66,96.49,-16.34,9.2,55.7,14.0,5.0,25.199,,,,NaN,,,,0 / 0,1549,2020-10-20 19:52:23:503
-5.1498,-10.8241,8.8122,-1.3364,-8.1017,5.3616,-3.7952,-2.6124,3.3778,-121.53,244.93,162.6,30.0,-2.66,96.49,-16.34,9.2,55.7,14.0,5.0,25.199,,,,NaN,,,,0 / 0,1554,2020-10-20 19:52:23:508
-4.0898,-11.3146,3.5935,-2.2392,-8.1918,4.9041,-1.8167,-2.9989,-1.3849,-117.96,238.35,187.35,30.0,-2.66,96.49,-16.34,9.2,55.7,14.0,5.0,25.199,,,,NaN,,,,0 / 0,1557,2020-10-20 19:52:23:511
-4.0898,-11.3146,3.5935,-2.2392,-8.1918,4.9041,-1.8167,-2.9989,-1.3849,-117.96,238.35,187.35,30.0,2.59,98.29,-14.99,9.2,55.7,14.0,5.0,25.199,,,,NaN,,,,0 / 0,1563,2020-10-20 19:52:23:517
-4.0898,-11.3146,3.5935,-2.2392,-8.1918,4.9041,-1.8167,-2.9989,-1.3849,-117.96,238.35,187.35,30.0,2.59,98.29,-14.99,9.2,55.7,14.0,5.0,25.199,,,,NaN,,,,0 / 0,1568,2020-10-20 19:52:23:522
-4.0898,-11.3146,3.5935,-2.2392,-8.1918,4.9041,-1.8167,-2.9989,-1.3849,-117.96,238.35,187.35,30.0,2.59,98.29,-14.99,9.2,55.7,14.0,5.0,25.199,,,,NaN,,,,0 / 0,1573,2020-10-20 19:52:23:527
-4.2572,-11.7979,6.015,-3.1672,-8.2416,4.268,-1.0374,-3.4193,1.676,-154.61,250.57,193.02,30.0,2.59,98.29,-14.99,9.2,55.7,14.0,5.0,25.199,,,,NaN,,,,0 / 0,1577,2020-10-20 19:52:23:531
-4.2572,-11.7979,6.015,-3.1672,-8.2416,4.268,-1.0374,-3.4193,1.676,-154.61,250.57,193.02,30.0,2.59,98.29,-14.99,9.2,55.7,14.0,5.0,25.199,,,,NaN,,,,0 / 0,1583,2020-10-20 19:52:23:537
-4.2572,-11.7979,6.015,-3.1672,-8.2416,4.268,-1.0374,-3.4193,1.676,-154.61,250.57,193.02,30.0,2.59,98.29,-14.99,9.2,55.7,14.0,5.0,25.199,,,,NaN,,,,0 / 0,1588,2020-10-20 19:52:23:542
-2.8431,-10.044,7.4363,-3.8019,-8.2206,3.7601,1.0268,-1.6764,3.6089,-140.36,226.14,190.5,30.0,7.99,99.79,-14.24,2.7,57.18,36.58,5.0,36.428,,,,NaN,,,,0 / 0,1592,2020-10-20 19:52:23:546
-2.8431,-10.044,7.4363,-3.8019,-8.2206,3.7601,1.0268,-1.6764,3.6089,-140.36,226.14,190.5,30.0,7.99,99.79,-14.24,2.7,57.18,36.58,5.0,36.428,,,,NaN,,,,0 / 0,1598,2020-10-20 19:52:23:552
-2.8431,-10.044,7.4363,-3.8019,-8.2206,3.7601,1.0268,-1.6764,3.6089,-140.36,226.14,190.5,30.0,7.99,99.79,-14.24,2.7,57.18,36.58,5.0,36.428,,,,NaN,,,,0 / 0,1603,2020-10-20 19:52:23:557
-0.6967,-8.9864,6.4696,-4.346,-8.1476,3.3015,3.7282,-0.6907,3.1082,-126.15,176.4,179.82,53.0,11.89,101.44,-14.69,2.7,57.18,36.58,5.0,36.428,,,,NaN,,,,0 / 0,1608,2020-10-20 19:52:23:562
-0.6967,-8.9864,6.4696,-4.346,-8.1476,3.3015,3.7282,-0.6907,3.1082,-126.15,176.4,179.82,53.0,11.89,101.44,-14.69,2.7,57.18,36.58,5.0,36.428,,,,NaN,,,,0 / 0,1613,2020-10-20 19:52:23:567
-0.6967,-8.9864,6.4696,-4.346,-8.1476,3.3015,3.7282,-0.6907,3.1082,-126.15,176.4,179.82,53.0,11.89,101.44,-14.69,2.7,57.18,36.58,5.0,36.428,,,,NaN,,,,0 / 0,1618,2020-10-20 19:52:23:572
-0.0578,-7.991,6.6012,-4.7785,-8.0563,2.9039,4.8054,0.2083,3.6458,-110.19,138.35,149.79,53.0,16.84,101.59,-9.89,2.7,57.18,36.58,5.0,36.428,,,,NaN,,,,0 / 0,1623,2020-10-20 19:52:23:577
-0.0578,-7.991,6.6012,-4.7785,-8.0563,2.9039,4.8054,0.2083,3.6458,-110.19,138.35,149.79,53.0,16.84,101.59,-9.89,2.7,57.18,36.58,5.0,36.428,,,,NaN,,,,0 / 0,1628,2020-10-20 19:52:23:582
-0.0578,-7.991,6.6012,-4.7785,-8.0563,2.9039,4.8054,0.2083,3.6458,-110.19,138.35,149.79,53.0,16.84,101.59,-9.89,2.7,57.18,36.58,5.0,36.428,,,,NaN,,,,0 / 0,1636,2020-10-20 19:52:23:590
-0.0578,-7.991,6.6012,-4.7785,-8.0563,2.9039,4.8054,0.2083,3.6458,-110.19,138.35,149.79,53.0,16.84,101.59,-9.89,2.7,57.18,36.58,5.0,36.428,,,,NaN,,,,0 / 0,1637,2020-10-20 19:52:23:591
-1.2088,-7.4908,6.5988,-5.2084,-7.9321,2.4749,4.0881,0.5761,4.0818,-79.71,115.85,110.84,53.0,16.84,101.59,-9.89,2.7,57.18,36.58,5.0,36.428,,,,NaN,,,,0 / 0,1642,2020-10-20 19:52:23:596
-1.2088,-7.4908,6.5988,-5.2084,-7.9321,2.4749,4.0881,0.5761,4.0818,-79.71,115.85,110.84,53.0,20.29,102.79,-9.29,359.39,53.98,64.58,5.0,36.428,,,,NaN,,,,0 / 0,1647,2020-10-20 19:52:23:601
-2.1133,-7.3664,6.1059,-5.4518,-7.8539,2.183,3.4278,0.6161,3.8872,-73.65,118.06,82.98,53.0,20.29,102.79,-9.29,359.39,53.98,64.58,5.0,36.428,,,,NaN,,,,0 / 0,1654,2020-10-20 19:52:23:608
-2.1133,-7.3664,6.1059,-5.4518,-7.8539,2.183,3.4278,0.6161,3.8872,-73.65,118.06,82.98,53.0,20.29,102.79,-9.29,359.39,53.98,64.58,5.0,36.428,,,,NaN,,,,0 / 0,1657,2020-10-20 19:52:23:611
-2.1133,-7.3664,6.1059,-5.4518,-7.8539,2.183,3.4278,0.6161,3.8872,-73.65,118.06,82.98,53.0,20.29,102.79,-9.29,359.39,53.98,64.58,5.0,36.428,,,,NaN,,,,0 / 0,1663,2020-10-20 19:52:23:617
-2.1133,-7.3664,6.1059,-5.4518,-7.8539,2.183,3.4278,0.6161,3.8872,-73.65,118.06,82.98,53.0,20.29,102.79,-9.29,359.39,53.98,64.58,5.0,36.428,,,,NaN,,,,0 / 0,1667,2020-10-20 19:52:23:621
-4.6425,-6.9022,7.9771,-5.6934,-7.7804,1.7947,1.1411,1.0015,6.154,-56.19,139.75,51.55,53.0,21.94,103.09,-7.64,359.39,53.98,64.58,5.0,36.428,,,,NaN,,,,0 / 0,1673,2020-10-20 19:52:23:627
-4.6425,-6.9022,7.9771,-5.6934,-7.7804,1.7947,1.1411,1.0015,6.154,-56.19,139.75,51.55,53.0,21.94,103.09,-7.64,359.39,53.98,64.58,5.0,36.428,,,,NaN,,,,0 / 0,1680,2020-10-20 19:52:23:634
-4.6425,-6.9022,7.9771,-5.6934,-7.7804,1.7947,1.1411,1.0015,6.154,-56.19,139.75,51.55,53.0,21.94,103.09,-7.64,359.39,53.98,64.58,5.0,36.428,,,,NaN,,,,0 / 0,1683,2020-10-20 19:52:23:637
-7.1932,-7.0147,6.819,-5.852,-7.7217,1.5166,-1.2471,0.8313,5.278,-34.21,150.68,49.38,53.0,24.34,102.19,-6.44,359.72,51.94,75.47,5.0,36.428,,,,NaN,,,,0 / 0,1688,2020-10-20 19:52:23:642
-7.1932,-7.0147,6.819,-5.852,-7.7217,1.5166,-1.2471,0.8313,5.278,-34.21,150.68,49.38,53.0,24.34,102.19,-6.44,359.72,51.94,75.47,5.0,36.428,,,,NaN,,,,0 / 0,1693,2020-10-20 19:52:23:647
-7.1932,-7.0147,6.819,-5.852,-7.7217,1.5166,-1.2471,0.8313,5.278,-34.21,150.68,49.38,53.0,24.34,102.19,-6.44,359.72,51.94,75.47,5.0,36.428,,,,NaN,,,,0 / 0,1697,2020-10-20 19:52:23:651
-8.2293,-7.3233,3.8758,-6.0136,-7.6427,1.2633,-2.1163,0.4457,2.5916,-20.24,141.4,57.15,53.0,24.34,102.19,-6.44,359.72,51.94,75.47,5.0,36.428,,,,NaN,,,,0 / 0,1703,2020-10-20 19:52:23:657
-8.2293,-7.3233,3.8758,-6.0136,-7.6427,1.2633,-2.1163,0.4457,2.5916,-20.24,141.4,57.15,53.0,25.39,103.99,-6.44,359.72,51.94,75.47,5.0,36.428,,,,NaN,,,,0 / 0,1707,2020-10-20 19:52:23:661
-8.2293,-7.3233,3.8758,-6.0136,-7.6427,1.2633,-2.1163,0.4457,2.5916,-20.24,141.4,57.15,53.0,25.39,103.99,-6.44,359.72,51.94,75.47,5.0,36.428,,,,NaN,,,,0 / 0,1713,2020-10-20 19:52:23:667
-8.2293,-7.3233,3.8758,-6.0136,-7.6427,1.2633,-2.1163,0.4457,2.5916,-20.24,141.4,57.15,53.0,25.39,103.99,-6.44,359.72,51.94,75.47,5.0,36.428,,,,NaN,,,,0 / 0,1718,2020-10-20 19:52:23:672
-9.3946,-6.5481,2.4664,-6.2357,-7.5066,0.9683,-3.0516,1.0878,1.4814,-13.66,115.96,68.84,53.0,25.39,103.99,-6.44,359.72,51.94,75.47,5.0,36.428,,,,NaN,,,,0 / 0,1724,2020-10-20 19:52:23:678
-9.3946,-6.5481,2.4664,-6.2357,-7.5066,0.9683,-3.0516,1.0878,1.4814,-13.66,115.96,68.84,33.0,28.69,103.24,-5.69,1.94,49.95,81.17,5.0,36.428,,,,NaN,,,,0 / 0,1729,2020-10-20 19:52:23:683
-9.3946,-6.5481,2.4664,-6.2357,-7.5066,0.9683,-3.0516,1.0878,1.4814,-13.66,115.96,68.84,33.0,28.69,103.24,-5.69,1.94,49.95,81.17,5.0,36.428,,,,NaN,,,,0 / 0,1733,2020-10-20 19:52:23:687
-9.3946,-6.5481,2.4664,-6.2357,-7.5066,0.9683,-3.0516,1.0878,1.4814,-13.66,115.96,68.84,33.0,28.69,103.24,-5.69,1.94,49.95,81.17,5.0,36.428,,,,NaN,,,,0 / 0,1738,2020-10-20 19:52:23:692
-8.0355,-6.2609,0.9111,-6.4495,-7.3533,0.709,-2.0165,1.1873,0.3476,-14.05,103.95,69.82,33.0,28.84,101.59,-4.04,1.94,49.95,81.17,5.0,36.428,,,,NaN,,,,0 / 0,1751,2020-10-20 19:52:23:705
-8.0355,-6.2609,0.9111,-6.4495,-7.3533,0.709,-2.0165,1.1873,0.3476,-14.05,103.95,69.82,33.0,28.84,101.59,-4.04,1.94,49.95,81.17,5.0,36.428,,,,NaN,,,,0 / 0,1760,2020-10-20 19:52:23:714
-8.0355,-6.2609,0.9111,-6.4495,-7.3533,0.709,-2.0165,1.1873,0.3476,-14.05,103.95,69.82,33.0,28.84,101.59,-4.04,1.94,49.95,81.17,5.0,36.428,,,,NaN,,,,0 / 0,1760,2020-10-20 19:52:23:714
-8.4973,-6.0623,-2.8456,-6.6418,-7.2007,0.4555,-1.7366,1.2674,-3.3093,-23.32,80.01,68.21,33.0,28.84,101.59,-4.04,1.94,49.95,81.17,5.0,36.428,,,,NaN,,,,0 / 0,1761,2020-10-20 19:52:23:715
-8.4973,-6.0623,-2.8456,-6.6418,-7.2007,0.4555,-1.7366,1.2674,-3.3093,-23.32,80.01,68.21,33.0,28.84,101.59,-4.04,1.94,49.95,81.17,5.0,36.428,,,,NaN,,,,0 / 0,1763,2020-10-20 19:52:23:717
-8.4973,-6.0623,-2.8456,-6.6418,-7.2007,0.4555,-1.7366,1.2674,-3.3093,-23.32,80.01,68.21,33.0,31.39,101.59,-4.04,2.31,47.25,86.08,5.0,36.428,,,,NaN,,,,0 / 0,1767,2020-10-20 19:52:23:721
-11.9239,-5.6173,7.8958,-6.7888,-7.07,0.3122,-5.0152,1.5775,7.578,-51.57,-36.19,52.77,33.0,31.39,101.59,-4.04,2.31,47.25,86.08,5.0,36.428,,,,NaN,,,,0 / 0,1773,2020-10-20 19:52:23:727
-11.9239,-5.6173,7.8958,-6.7888,-7.07,0.3122,-5.0152,1.5775,7.578,-51.57,-36.19,52.77,33.0,31.39,101.59,-4.04,2.31,47.25,86.08,5.0,36.428,,,,NaN,,,,0 / 0,1777,2020-10-20 19:52:23:731
-11.9239,-5.6173,7.8958,-6.7888,-7.07,0.3122,-5.0152,1.5775,7.578,-51.57,-36.19,52.77,33.0,31.39,101.59,-4.04,2.31,47.25,86.08,5.0,36.428,,,,NaN,,,,0 / 0,1783,2020-10-20 19:52:23:737
-12.7709,-4.0117,7.1181,-6.8363,-7.0242,0.3107,-5.8122,3.1383,6.8019,-19.89,-3.57,70.55,33.0,33.19,101.59,-1.94,2.31,47.25,86.08,5.0,36.428,,,,NaN,,,,0 / 0,1788,2020-10-20 19:52:23:742
-12.7709,-4.0117,7.1181,-6.8363,-7.0242,0.3107,-5.8122,3.1383,6.8019,-19.89,-3.57,70.55,33.0,33.19,101.59,-1.94,2.31,47.25,86.08,5.0,36.428,,,,NaN,,,,0 / 0,1793,2020-10-20 19:52:23:747
-12.7709,-4.0117,7.1181,-6.8363,-7.0242,0.3107,-5.8122,3.1383,6.8019,-19.89,-3.57,70.55,33.0,33.19,101.59,-1.94,2.31,47.25,86.08,5.0,36.428,,,,NaN,,,,0 / 0,1798,2020-10-20 19:52:23:752
-12.7709,-4.0117,7.1181,-6.8363,-7.0242,0.3107,-5.8122,3.1383,6.8019,-19.89,-3.57,70.55,33.0,33.19,101.59,-1.94,2.31,47.25,86.08,5.0,36.428,,,,NaN,,,,0 / 0,1803,2020-10-20 19:52:23:757
-4.8937,-4.0117,6.3763,-7.0343,-6.8309,0.1655,2.2566,2.932,6.2081,-10.23,96.64,62.26,33.0,32.14,101.89,-1.49,0.28,44.15,88.65,5.0,36.428,,,,NaN,,,,0 / 0,1808,2020-10-20 19:52:23:762
-4.8937,-4.0117,6.3763,-7.0343,-6.8309,0.1655,2.2566,2.932,6.2081,-10.23,96.64,62.26,33.0,32.14,101.89,-1.49,0.28,44.15,88.65,5.0,36.428,,,,NaN,,,,0 / 0,1813,2020-10-20 19:52:23:767
-4.8937,-4.0117,6.3763,-7.0343,-6.8309,0.1655,2.2566,2.932,6.2081,-10.23,96.64,62.26,33.0,32.14,101.89,-1.49,0.28,44.15,88.65,5.0,36.428,,,,NaN,,,,0 / 0,1818,2020-10-20 19:52:23:772
-4.8937,-4.0117,6.3763,-7.0343,-6.8309,0.1655,2.2566,2.932,6.2081,-10.23,96.64,62.26,33.0,32.14,101.89,-1.49,0.28,44.15,88.65,5.0,36.428,,,,NaN,,,,0 / 0,1822,2020-10-20 19:52:23:776
-3.9988,-3.9806,3.213,-7.1645,-6.6957,-0.0876,3.2729,2.8153,3.3019,13.46,124.53,54.56,33.0,35.29,102.49,-2.09,0.28,44.15,88.65,5.0,36.428,,,,NaN,,,,0 / 0,1830,2020-10-20 19:52:23:784
-3.9988,-3.9806,3.213,-7.1645,-6.6957,-0.0876,3.2729,2.8153,3.3019,13.46,124.53,54.56,33.0,35.29,102.49,-2.09,0.28,44.15,88.65,5.0,36.428,,,,NaN,,,,0 / 0,1833,2020-10-20 19:52:23:787
-1.6371,-2.1166,2.7344,-7.2335,-6.616,-0.2728,5.6879,4.5831,3.0106,19.41,122.88,39.65,33.0,35.29,102.49,-2.09,0.28,44.15,88.65,5.0,36.428,,,,NaN,,,,0 / 0,1839,2020-10-20 19:52:23:793
-1.6371,-2.1166,2.7344,-7.2335,-6.616,-0.2728,5.6879,4.5831,3.0106,19.41,122.88,39.65,33.0,35.29,102.49,-2.09,0.28,44.15,88.65,5.0,36.428,,,,NaN,,,,0 / 0,1843,2020-10-20 19:52:23:797
-1.6371,-2.1166,2.7344,-7.2335,-6.616,-0.2728,5.6879,4.5831,3.0106,19.41,122.88,39.65,33.0,35.29,102.49,-2.09,0.28,44.15,88.65,5.0,36.428,,,,NaN,,,,0 / 0,1848,2020-10-20 19:52:23:802
-1.6371,-2.1166,2.7344,-7.2335,-6.616,-0.2728,5.6879,4.5831,3.0106,19.41,122.88,39.65,33.0,35.29,102.49,-2.09,0.28,44.15,88.65,5.0,36.428,,,,NaN,,,,0 / 0,1854,2020-10-20 19:52:23:808
7.0297,3.7291,-0.3786,-7.2229,-6.6178,-0.4525,14.3022,10.3923,0.077,29.7,125.12,-25.38,9.0,36.04,101.44,-0.59,3.69,42.44,93.59,5.0,36.428,,,,NaN,,,,0 / 0,1857,2020-10-20 19:52:23:811
7.0297,3.7291,-0.3786,-7.2229,-6.6178,-0.4525,14.3022,10.3923,0.077,29.7,125.12,-25.38,9.0,36.04,101.44,-0.59,3.69,42.44,93.59,5.0,36.428,,,,NaN,,,,0 / 0,1863,2020-10-20 19:52:23:817
7.0297,3.7291,-0.3786,-7.2229,-6.6178,-0.4525,14.3022,10.3923,0.077,29.7,125.12,-25.38,9.0,36.04,101.44,-0.59,3.69,42.44,93.59,5.0,36.428,,,,NaN,,,,0 / 0,1867,2020-10-20 19:52:23:821
-5.1928,-4.629,-2.9246,-6.9793,-6.8684,-0.5339,1.7952,2.248,-2.39,18.71,-23.1,-125.55,9.0,36.64,101.74,1.96,3.69,42.44,93.59,5.0,36.428,,,,NaN,,,,0 / 0,1873,2020-10-20 19:52:23:827
-5.1928,-4.629,-2.9246,-6.9793,-6.8684,-0.5339,1.7952,2.248,-2.39,18.71,-23.1,-125.55,9.0,36.64,101.74,1.96,3.69,42.44,93.59,5.0,36.428,,,,NaN,,,,0 / 0,1878,2020-10-20 19:52:23:832
-5.1928,-4.629,-2.9246,-6.9793,-6.8684,-0.5339,1.7952,2.248,-2.39,18.71,-23.1,-125.55,9.0,36.64,101.74,1.96,3.69,42.44,93.59,5.0,36.428,,,,NaN,,,,0 / 0,1883,2020-10-20 19:52:23:837
-10.7227,-8.8428,1.6242,-6.8199,-7.0348,-0.4129,-3.8883,-1.7931,2.038,35.44,-31.61,-79.14,9.0,36.34,102.79,1.21,3.69,42.44,93.59,5.0,36.428,,,,NaN,,,,0 / 0,1887,2020-10-20 19:52:23:841
-10.7227,-8.8428,1.6242,-6.8199,-7.0348,-0.4129,-3.8883,-1.7931,2.038,35.44,-31.61,-79.14,9.0,36.34,102.79,1.21,3.69,42.44,93.59,5.0,36.428,,,,NaN,,,,0 / 0,1893,2020-10-20 19:52:23:847
-10.7227,-8.8428,1.6242,-6.8199,-7.0348,-0.4129,-3.8883,-1.7931,2.038,35.44,-31.61,-79.14,9.0,36.34,102.79,1.21,3.69,42.44,93.59,5.0,36.428,,,,NaN,,,,0 / 0,1898,2020-10-20 19:52:23:852
-10.7227,-8.8428,1.6242,-6.8199,-7.0348,-0.4129,-3.8883,-1.7931,7.4173,20.81,39.55,-51.18,9.0,36.34,102.79,1.21,3.69,42.44,93.59,5.0,36.428,,,,NaN,,,,0 / 0,1903,2020-10-20 19:52:23:857
-9.1506,-7.321,7.0678,-6.6902,-7.1617,-0.3482,-2.437,-0.1341,7.4173,20.81,39.55,-51.18,9.0,33.04,100.99,-1.64,4.72,46.91,92.98,5.0,36.428,,,,NaN,,,,0 / 0,1907,2020-10-20 19:52:23:861
-9.1506,-7.321,7.0678,-6.6902,-7.1617,-0.3482,-2.437,-0.1341,7.4173,20.81,39.55,-51.18,9.0,33.04,100.99,-1.64,4.72,46.91,92.98,5.0,33.504,,,,NaN,,,,0 / 0,1913,2020-10-20 19:52:23:867
-9.1506,-7.321,7.0678,-6.6902,-7.1617,-0.3482,-2.437,-0.1341,7.4173,20.81,39.55,-51.18,9.0,33.04,100.99,-1.64,4.72,46.91,92.98,5.0,33.504,,,,NaN,,,,0 / 0,1918,2020-10-20 19:52:23:872
-8.0044,-7.3569,6.2997,-6.6005,-7.2444,-0.3489,-1.3793,-0.0854,6.65,40.2,50.12,-48.34,9.0,33.04,100.99,-1.64,4.72,46.91,92.98,5.0,33.504,,,,NaN,,,,0 / 0,1923,2020-10-20 19:52:23:877
-8.0044,-7.3569,6.2997,-6.6005,-7.2444,-0.3489,-1.3793,-0.0854,6.65,40.2,50.12,-48.34,9.0,34.69,102.64,-1.49,4.72,46.91,92.98,5.0,33.504,,,,NaN,,,,0 / 0,1927,2020-10-20 19:52:23:881
-8.0044,-7.3569,6.2997,-6.6005,-7.2444,-0.3489,-1.3793,-0.0854,6.65,40.2,50.12,-48.34,9.0,34.69,102.64,-1.49,4.72,46.91,92.98,5.0,33.504,,,,NaN,,,,0 / 0,1933,2020-10-20 19:52:23:887
-9.811,-9.5918,-1.1994,-6.527,-7.3145,-0.2584,-3.2491,-2.2382,-0.9396,53.78,5.74,-13.45,9.0,34.69,102.64,-1.49,4.72,46.91,92.98,5.0,33.504,,,,NaN,,,,0 / 0,1938,2020-10-20 19:52:23:892
-9.811,-9.5918,-1.1994,-6.527,-7.3145,-0.2584,-3.2491,-2.2382,-0.9396,53.78,5.74,-13.45,9.0,34.69,102.64,-1.49,4.72,46.91,92.98,5.0,33.504,,,,NaN,,,,0 / 0,1943,2020-10-20 19:52:23:897
-9.811,-9.5918,-1.1994,-6.527,-7.3145,-0.2584,-3.2491,-2.2382,-0.9396,53.78,5.74,-13.45,9.0,34.69,102.64,-1.49,4.72,46.91,92.98,5.0,33.504,,,,NaN,,,,0 / 0,1947,2020-10-20 19:52:23:901
-9.811,-9.5918,-1.1994,-6.527,-7.3145,-0.2584,-3.2491,-2.2382,-0.9396,53.78,5.74,-13.45,9.0,34.69,102.64,-1.49,4.72,46.91,92.98,5.0,33.504,,,,NaN,,,,0 / 0,1953,2020-10-20 19:52:23:907
-6.6261,-7.2229,-0.0412,-6.5319,-7.3133,-0.1442,-0.0563,0.1329,0.1038,45.66,-29.4,3.32,9.0,33.34,100.69,-0.59,3.09,48.23,92.27,5.0,33.504,,,,NaN,,,,0 / 0,1958,2020-10-20 19:52:23:912
-6.6261,-7.2229,-0.0412,-6.5319,-7.3133,-0.1442,-0.0563,0.1329,0.1038,45.66,-29.4,3.32,9.0,33.34,100.69,-0.59,3.09,48.23,92.27,5.0,33.504,,,,NaN,,,,0 / 0,1963,2020-10-20 19:52:23:917
-6.6261,-7.2229,-0.0412,-6.5319,-7.3133,-0.1442,-0.0563,0.1329,0.1038,45.66,-29.4,3.32,9.0,33.34,100.69,-0.59,3.09,48.23,92.27,5.0,33.504,,,,NaN,,,,0 / 0,1968,2020-10-20 19:52:23:922
-7.0736,-7.0003,-0.0341,-6.5121,-7.3317,0.092,-0.5242,0.3734,-0.1266,40.59,-73.12,-17.05,6.0,32.44,102.64,-2.99,3.09,48.23,92.27,5.0,33.504,,,,NaN,,,,0 / 0,1973,2020-10-20 19:52:23:927
-7.0736,-7.0003,-0.0341,-6.5121,-7.3317,0.092,-0.5242,0.3734,-0.1266,40.59,-73.12,-17.05,6.0,32.44,102.64,-2.99,3.09,48.23,92.27,5.0,33.504,,,,NaN,,,,0 / 0,1978,2020-10-20 19:52:23:932
-7.0736,-7.0003,-0.0341,-6.5121,-7.3317,0.092,-0.5242,0.3734,-0.1266,40.59,-73.12,-17.05,6.0,32.44,102.64,-2.99,3.09,48.23,92.27,5.0,33.504,,,,NaN,,,,0 / 0,1983,2020-10-20 19:52:23:937
-7.0736,-7.0003,-0.0341,-6.5121,-7.3317,0.092,-0.5242,0.3734,-0.1266,40.59,-73.12,-17.05,6.0,32.44,102.64,-2.99,3.09,48.23,92.27,5.0,33.504,,,,NaN,,,,0 / 0,1988,2020-10-20 19:52:23:942
-9.9234,-8.0388,-0.4408,-6.4677,-7.3643,0.3266,-3.4141,-0.6271,-0.7696,38.56,-118.86,-23.04,6.0,30.49,103.54,-3.89,3.09,48.67,87.11,5.0,33.504,,,,NaN,,,,0 / 0,1996,2020-10-20 19:52:23:950
-9.9234,-8.0388,-0.4408,-6.4677,-7.3643,0.3266,-3.4141,-0.6271,-0.7696,38.56,-118.86,-23.04,6.0,30.49,103.54,-3.89,3.09,48.67,87.11,5.0,33.504,,,,NaN,,,,0 / 0,1998,2020-10-20 19:52:23:952
-9.9234,-8.0388,-0.4408,-6.4677,-7.3643,0.3266,-3.4141,-0.6271,-0.7696,38.56,-118.86,-23.04,6.0,30.49,103.54,-3.89,3.09,48.67,87.11,5.0,33.504,,,,NaN,,,,0 / 0,2003,2020-10-20 19:52:23:957
-8.9831,-8.6442,-0.5437,-6.4188,-7.3771,0.7403,-2.5136,-1.2088,-1.2898,27.71,-169.75,-5.47,6.0,31.54,101.44,-4.64,3.09,48.67,87.11,0.0,33.504,,,,NaN,,,,0 / 0,2007,2020-10-20 19:52:23:961
-8.9831,-8.6442,-0.5437,-6.4188,-7.3771,0.7403,-2.5136,-1.2088,-1.2898,27.71,-169.75,-5.47,6.0,31.54,101.44,-4.64,3.09,48.67,87.11,0.0,33.504,,,,NaN,,,,0 / 0,2014,2020-10-20 19:52:23:968
-9.5956,-6.4643,2.1745,-6.3794,-7.3697,1.0774,-3.1612,0.9689,1.0879,29.0,-176.96,-1.62,6.0,31.54,101.44,-4.64,3.09,48.67,87.11,0.0,33.504,,,,NaN,,,,0 / 0,2018,2020-10-20 19:52:23:972
-9.5956,-6.4643,2.1745,-6.3794,-7.3697,1.0774,-3.1612,0.9689,1.0879,29.0,-176.96,-1.62,6.0,31.54,101.44,-4.64,3.09,48.67,87.11,0.0,33.504,,,,NaN,,,,0 / 0,2023,2020-10-20 19:52:23:977
-9.5956,-6.4643,2.1745,-6.3794,-7.3697,1.0774,-3.1612,0.9689,1.0879,29.0,-176.96,-1.62,6.0,29.59,100.84,-6.29,1.21,48.72,80.41,0.0,33.504,,,,NaN,,,,0 / 0,2029,2020-10-20 19:52:23:983
-9.5956,-6.4643,2.1745,-6.3794,-7.3697,1.0774,-3.1612,0.9689,1.0879,29.0,-176.96,-1.62,6.0,29.59,100.84,-6.29,1.21,48.72,80.41,0.0,33.504,,,,NaN,,,,0 / 0,2033,2020-10-20 19:52:23:987
-8.2461,-9.3644,-0.6586,-6.3282,-7.363,1.3821,-1.8585,-1.9323,-2.0537,15.88,-159.5,-2.18,6.0,29.59,100.84,-6.29,1.21,48.72,80.41,0.0,33.504,,,,NaN,,,,0 / 0,2038,2020-10-20 19:52:23:992
-8.2461,-9.3644,-0.6586,-6.3282,-7.363,1.3821,-1.8585,-1.9323,-2.0537,15.88,-159.5,-2.18,6.0,29.59,100.84,-6.29,1.21,48.72,80.41,0.0,33.504,,,,NaN,,,,0 / 0,2043,2020-10-20 19:52:23:997
-8.2461,-9.3644,-0.6586,-6.3282,-7.363,1.3821,-1.8585,-1.9323,-2.0537,15.88,-159.5,-2.18,6.0,29.59,100.84,-6.29,1.21,48.72,80.41,0.0,33.504,,,,NaN,,,,0 / 0,2048,2020-10-20 19:52:24:002
-7.5857,-9.496,1.0547,-6.2394,-7.3695,1.712,-1.2807,-2.0492,-0.6754,6.43,-149.38,-2.77,6.0,28.24,101.44,-8.24,1.21,48.72,80.41,0.0,33.504,,,,NaN,,,,0 / 0,2053,2020-10-20 19:52:24:007
-7.5857,-9.496,1.0547,-6.2394,-7.3695,1.712,-1.2807,-2.0492,-0.6754,6.43,-149.38,-2.77,6.0,28.24,101.44,-8.24,1.21,48.72,80.41,0.0,33.504,,,,NaN,,,,0 / 0,2058,2020-10-20 19:52:24:012
-7.5857,-9.496,1.0547,-6.2394,-7.3695,1.712,-1.2807,-2.0492,-0.6754,6.43,-149.38,-2.77,6.0,28.24,101.44,-8.24,1.21,48.72,80.41,0.0,33.504,,,,NaN,,,,0 / 0,2063,2020-10-20 19:52:24:017
-7.5857,-9.496,1.0547,-6.2394,-7.3695,1.712,-1.2807,-2.0492,-0.6754,6.43,-149.38,-2.77,6.0,28.24,101.44,-8.24,1.21,48.72,80.41,0.0,33.504,,,,NaN,,,,0 / 0,2067,2020-10-20 19:52:24:021
-5.602,-8.9218,2.2654,-6.1659,-7.364,1.9807,0.6317,-1.4767,0.263,12.62,-165.8,3.49,6.0,27.19,101.74,-8.99,0.39,48.67,72.19,0.0,33.504,,,,NaN,,,,0 / 0,2073,2020-10-20 19:52:24:027
-5.602,-8.9218,2.2654,-6.1659,-7.364,1.9807,0.6317,-1.4767,0.263,12.62,-165.8,3.49,6.0,27.19,101.74,-8.99,0.39,48.67,72.19,0.0,33.504,,,,NaN,,,,0 / 0,2078,2020-10-20 19:52:24:032
-5.602,-8.9218,2.2654,-6.1659,-7.364,1.9807,0.6317,-1.4767,0.263,12.62,-165.8,3.49,6.0,27.19,101.74,-8.99,0.39,48.67,72.19,0.0,33.504,,,,NaN,,,,0 / 0,2082,2020-10-20 19:52:24:036
-5.1234,-11.9415,-0.4552,-6.0441,-7.3721,2.3002,0.991,-4.4836,-2.7822,2.65,-123.06,-5.75,2.0,25.39,101.44,-8.54,0.39,48.67,72.19,0.0,33.504,,,,NaN,,,,0 / 0,2088,2020-10-20 19:52:24:042
-5.1234,-11.9415,-0.4552,-6.0441,-7.3721,2.3002,0.991,-4.4836,-2.7822,2.65,-123.06,-5.75,2.0,25.39,101.44,-8.54,0.39,48.67,72.19,0.0,33.504,,,,NaN,,,,0 / 0,2093,2020-10-20 19:52:24:047
-5.1234,-11.9415,-0.4552,-6.0441,-7.3721,2.3002,0.991,-4.4836,-2.7822,2.65,-123.06,-5.75,2.0,25.39,101.44,-8.54,0.39,48.67,72.19,0.0,33.504,,,,NaN,,,,0 / 0,2097,2020-10-20 19:52:24:051
-5.4704,-13.0948,-0.0412,-5.9741,-7.3962,2.4035,0.5801,-5.6041,-2.4754,-18.21,-78.93,-0.43,2.0,25.39,101.44,-8.54,0.39,48.67,72.19,0.0,33.504,,,,NaN,,,,0 / 0,2103,2020-10-20 19:52:24:057
-5.4704,-13.0948,-0.0412,-5.9741,-7.3962,2.4035,0.5801,-5.6041,-2.4754,-18.21,-78.93,-0.43,2.0,25.39,101.44,-8.54,0.39,48.67,72.19,0.0,33.504,,,,NaN,,,,0 / 0,2108,2020-10-20 19:52:24:062
-5.4704,-13.0948,-0.0412,-5.9741,-7.3962,2.4035,0.5801,-5.6041,-2.4754,-18.21,-78.93,-0.43,2.0,23.29,102.64,-10.64,1.92,48.96,68.08,0.0,33.504,,,,NaN,,,,0 / 0,2112,2020-10-20 19:52:24:066
-5.4704,-13.0948,-0.0412,-5.9741,-7.3962,2.4035,0.5801,-5.6041,-2.4754,-18.21,-78.93,-0.43,2.0,23.29,102.64,-10.64,1.92,48.96,68.08,0.0,33.504,,,,NaN,,,,0 / 0,2118,2020-10-20 19:52:24:072
-2.4411,-12.5565,2.0644,-5.9101,-7.4189,2.4902,3.2094,-4.9857,-0.9274,-33.82,-89.67,9.79,2.0,23.29,102.64,-10.64,1.92,48.96,68.08,0.0,33.504,,,,NaN,,,,0 / 0,2123,2020-10-20 19:52:24:077
-2.4411,-12.5565,2.0644,-5.9101,-7.4189,2.4902,3.2094,-4.9857,-0.9274,-33.82,-89.67,9.79,2.0,22.09,102.19,-10.34,1.92,48.96,68.08,0.0,33.504,,,,NaN,,,,0 / 0,2127,2020-10-20 19:52:24:081
-2.4411,-12.5565,2.0644,-5.9101,-7.4189,2.4902,3.2094,-4.9857,-0.9274,-33.82,-89.67,9.79,2.0,22.09,102.19,-10.34,1.92,48.96,68.08,0.0,33.504,,,,NaN,,,,0 / 0,2132,2020-10-20 19:52:24:086
-7.021,-13.6763,1.9113,-5.857,-7.441,2.549,-1.0742,-6.1212,-0.6767,-34.52,-81.13,8.43,2.0,22.09,102.19,-10.34,1.92,48.96,68.08,0.0,33.504,,,,NaN,,,,0 / 0,2138,2020-10-20 19:52:24:092
-7.021,-13.6763,1.9113,-5.857,-7.441,2.549,-1.0742,-6.1212,-0.6767,-34.52,-81.13,8.43,2.0,22.09,102.19,-10.34,1.92,48.96,68.08,0.0,33.504,,,,NaN,,,,0 / 0,2142,2020-10-20 19:52:24:096
-7.021,-13.6763,1.9113,-5.857,-7.441,2.549,-1.0742,-6.1212,-0.6767,-34.52,-81.13,8.43,2.0,22.09,102.19,-10.34,1.92,48.96,68.08,0.0,33.504,,,,NaN,,,,0 / 0,2147,2020-10-20 19:52:24:101
-12.8571,-14.6454,0.3488,-5.8741,-7.4352,2.5265,-1.0742,-7.0747,-2.2237,-42.99,-16.42,34.61,2.0,22.09,103.54,-10.34,1.92,48.96,68.08,0.0,33.504,,,,NaN,,,,0 / 0,2152,2020-10-20 19:52:24:106
-12.8571,-14.6454,0.3488,-5.8741,-7.4352,2.5265,-6.876,-7.0747,-2.2237,-42.99,-16.42,34.61,2.0,23.59,103.54,-10.34,359.65,49.3,66.73,0.0,33.504,,,,NaN,,,,0 / 0,2158,2020-10-20 19:52:24:112
-12.8571,-14.6454,0.3488,-5.8741,-7.4352,2.5265,-6.876,-7.0747,-2.2237,-42.99,-16.42,34.61,2.0,23.59,103.54,-10.34,359.65,49.3,66.73,0.0,33.504,,,,NaN,,,,0 / 0,2162,2020-10-20 19:52:24:116
-12.8571,-14.6454,0.3488,-5.8741,-7.4352,2.5265,-6.876,-7.0747,-2.2237,-42.99,-16.42,34.61,2.0,23.59,103.54,-10.34,359.65,49.3,66.73,0.0,33.504,,,,NaN,,,,0 / 0,2169,2020-10-20 19:52:24:123
-15.2307,-14.7507,3.2441,-6.1453,-7.3145,2.2145,-8.9394,-7.2623,0.977,-69.03,119.49,107.79,2.0,22.69,103.84,-8.09,359.65,49.3,66.73,0.0,33.504,,,,NaN,,,,0 / 0,2174,2020-10-20 19:52:24:128
-15.2307,-14.7507,3.2441,-6.1453,-7.3145,2.2145,-8.9394,-7.2623,0.977,-69.03,119.49,107.79,2.0,22.69,103.84,-8.09,359.65,49.3,66.73,0.0,33.504,,,,NaN,,,,0 / 0,2179,2020-10-20 19:52:24:133
-15.2307,-14.7507,3.2441,-6.1453,-7.3145,2.2145,-8.9394,-7.2623,0.977,-69.03,119.49,107.79,2.0,22.69,103.84,-8.09,359.65,49.3,66.73,0.0,33.504,,,,NaN,,,,0 / 0,2182,2020-10-20 19:52:24:136
-20.7534,-16.83,0.0592,-6.6215,-7.0148,1.766,-13.9267,-9.5978,-1.7615,-69.73,111.33,196.41,2.0,24.79,103.84,-6.59,0.34,45.67,75.07,0.0,33.504,,,,NaN,,,,0 / 0,2188,2020-10-20 19:52:24:142
-20.7534,-16.83,0.0592,-6.6215,-7.0148,1.766,-13.9267,-9.5978,-1.7615,-69.73,111.33,196.41,2.0,24.79,103.84,-6.59,0.34,45.67,75.07,0.0,33.504,,,,NaN,,,,0 / 0,2194,2020-10-20 19:52:24:148
-20.7534,-16.83,0.0592,-6.6215,-7.0148,1.766,-13.9267,-9.5978,-1.7615,-69.73,111.33,196.41,2.0,24.79,103.84,-6.59,0.34,45.67,75.07,0.0,33.504,,,,NaN,,,,0 / 0,2198,2020-10-20 19:52:24:152
-14.7402,-14.6478,-1.3358,-7.1089,-6.5926,1.4738,-9.5052,-8.908,-1.4675,-95.98,52.08,291.16,2.0,24.79,103.84,-6.59,0.34,45.67,75.07,0.0,33.504,,,,NaN,,,,0 / 0,2203,2020-10-20 19:52:24:157
-14.7402,-14.6478,-1.3358,-7.1089,-6.5926,1.4738,-9.5052,-8.908,-1.4675,-95.98,52.08,291.16,0.0,24.79,103.84,-6.59,0.34,45.67,75.07,0.0,33.504,,,,NaN,,,,0 / 0,2207,2020-10-20 19:52:24:161
-14.7402,-14.6478,-1.3358,-7.1089,-6.5926,1.4738,-9.5052,-8.908,-1.4675,-95.98,52.08,291.16,0.0,35.29,102.49,-3.14,0.34,45.67,75.07,0.0,33.504,,,,NaN,,,,0 / 0,2213,2020-10-20 19:52:24:167
-14.7402,-14.6478,-1.3358,-7.1089,-6.5926,1.4738,-9.5052,-8.908,-1.4675,-95.98,52.08,291.16,0.0,35.29,102.49,-3.14,0.34,45.67,75.07,0.0,33.504,,,,NaN,,,,0 / 0,2218,2020-10-20 19:52:24:172
-2.3526,-10.3718,3.3661,-7.6299,-6.046,1.1836,5.5615,-4.1005,2.1385,-153.49,38.32,328.75,0.0,35.29,102.49,-3.14,0.34,45.67,75.07,0.0,33.504,,,,NaN,,,,0 / 0,2223,2020-10-20 19:52:24:177
-2.3526,-10.3718,3.3661,-7.6299,-6.046,1.1836,5.5615,-4.1005,2.1385,-153.49,38.32,328.75,0.0,39.64,101.74,-2.39,355.74,38.06,81.18,0.0,33.504,,,,NaN,,,,0 / 0,2227,2020-10-20 19:52:24:181
-2.3526,-10.3718,3.3661,-7.6299,-6.046,1.1836,5.5615,-4.1005,2.1385,-153.49,38.32,328.75,0.0,39.64,101.74,-2.39,355.74,38.06,81.18,0.0,33.504,,,,NaN,,,,0 / 0,2233,2020-10-20 19:52:24:187
8.006,-1.9539,5.8666,-8.1242,-5.3885,1.0644,16.388,3.6056,4.7684,-93.92,-67.45,230.43,0.0,39.64,101.74,-2.39,355.74,38.06,81.18,0.0,39.509,,,,NaN,,,,0 / 0,2238,2020-10-20 19:52:24:192
8.006,-1.9539,5.8666,-8.1242,-5.3885,1.0644,16.388,3.6056,4.7684,-93.92,-67.45,230.43,0.0,39.64,101.74,-2.39,355.74,38.06,81.18,0.0,39.509,,,,NaN,,,,0 / 0,2243,2020-10-20 19:52:24:197
8.006,-1.9539,5.8666,-8.1242,-5.3885,1.0644,16.388,3.6056,4.7684,-93.92,-67.45,230.43,0.0,39.64,101.74,-2.39,355.74,38.06,81.18,0.0,39.509,,,,NaN,,,,0 / 0,2248,2020-10-20 19:52:24:202
10.6429,0.1662,2.7153,-8.3053,-5.0916,1.1259,19.1532,5.3835,1.5616,-84.75,-68.5,125.47,0.0,41.89,98.89,-2.09,355.74,38.06,81.18,0.0,39.509,,,,NaN,,,,0 / 0,2252,2020-10-20 19:52:24:206
10.6429,0.1662,2.7153,-8.3053,-5.0916,1.1259,19.1532,5.3835,1.5616,-84.75,-68.5,125.47,0.0,41.89,98.89,-2.09,355.74,38.06,81.18,0.0,39.509,,,,NaN,,,,0 / 0,2258,2020-10-20 19:52:24:212
10.6429,0.1662,2.7153,-8.3053,-5.0916,1.1259,19.1532,5.3835,1.5616,-79.11,-64.33,26.42,0.0,41.89,98.89,-2.09,355.74,38.06,81.18,0.0,39.509,,,,NaN,,,,0 / 0,2263,2020-10-20 19:52:24:217
10.6429,0.8505,0.6072,-8.3418,-5.0191,1.1804,16.5977,5.9465,-0.5913,-79.11,-64.33,26.42,0.0,41.14,99.49,-2.09,356.64,30.78,81.95,0.0,39.509,,,,NaN,,,,0 / 0,2268,2020-10-20 19:52:24:222
8.128,0.8505,0.6072,-8.3418,-5.0191,1.1804,16.5977,5.9465,-0.5913,-79.11,-64.33,26.42,0.0,41.14,99.49,-2.09,356.64,30.78,81.95,0.0,39.509,,,,NaN,,,,0 / 0,2272,2020-10-20 19:52:24:226
8.128,0.8505,0.6072,-8.3418,-5.0191,1.1804,16.5977,5.9465,-0.5913,-71.69,-87.57,-45.89,0.0,41.14,99.49,-2.09,356.64,30.78,81.95,0.0,39.509,,,,NaN,,,,0 / 0,2278,2020-10-20 19:52:24:232
8.128,0.8505,0.6072,-8.3418,-5.0191,1.1804,16.5977,5.9465,-0.5913,-71.69,-87.57,-45.89,0.0,41.14,99.49,-2.09,356.64,30.78,81.95,0.0,39.509,,,,NaN,,,,0 / 0,2282,2020-10-20 19:52:24:236
4.5507,1.0779,0.4325,-8.2521,-5.143,1.2741,12.8799,6.2689,-0.8535,-69.94,-93.94,-81.84,0.0,41.14,99.49,-2.09,356.64,30.78,81.95,0.0,39.509,,,,NaN,,,,0 / 0,2287,2020-10-20 19:52:24:241
4.5507,1.0779,0.4325,-8.2521,-5.143,1.2741,12.8799,6.2689,-0.8535,-69.94,-93.94,-81.84,0.0,39.19,100.69,-0.89,356.64,30.78,81.95,0.0,39.509,,,,NaN,,,,0 / 0,2293,2020-10-20 19:52:24:247
4.5507,1.0779,0.4325,-8.2521,-5.143,1.2741,12.8799,6.2689,-0.8535,-69.94,-93.94,-81.84,0.0,39.19,100.69,-0.89,356.64,30.78,81.95,0.0,39.509,,,,NaN,,,,0 / 0,2298,2020-10-20 19:52:24:252
-0.2229,-1.6069,0.4612,-8.0845,-5.3723,1.3964,7.9044,3.7938,-0.9425,-67.49,-111.02,-113.09,0.0,39.19,100.69,-0.89,356.64,30.78,81.95,0.0,39.509,,,,NaN,,,,0 / 0,2303,2020-10-20 19:52:24:257
-0.2229,-1.6069,0.4612,-8.0845,-5.3723,1.3964,7.9044,3.7938,-0.9425,-67.49,-111.02,-113.09,0.0,39.19,100.69,-0.89,356.64,30.78,81.95,0.0,39.509,,,,NaN,,,,0 / 0,2307,2020-10-20 19:52:24:261
-0.2229,-1.6069,0.4612,-8.0845,-5.3723,1.3964,7.9044,3.7938,-0.9425,-67.49,-111.02,-113.09,0.0,38.29,101.59,-1.19,355.16,33.22,80.2,0.0,39.509,,,,NaN,,,,0 / 0,2313,2020-10-20 19:52:24:267
-0.2229,-1.6069,0.4612,-8.0845,-5.3723,1.3964,7.9044,3.7938,-0.9425,-67.49,-111.02,-113.09,0.0,38.29,101.59,-1.19,355.16,33.22,80.2,0.0,39.509,,,,NaN,,,,0 / 0,2317,2020-10-20 19:52:24:271
-9.8373,-4.7678,0.8226,-7.7886,-5.7522,1.556,-2.0168,1.008,-0.7398,-66.62,-92.16,-127.34,0.0,38.29,101.59,-1.19,355.16,33.22,80.2,0.0,39.509,,,,NaN,,,,0 / 0,2322,2020-10-20 19:52:24:276
-9.8373,-4.7678,0.8226,-7.7886,-5.7522,1.556,-2.0168,1.008,-0.7398,-66.62,-92.16,-127.34,0.0,38.29,101.59,-1.19,355.16,33.22,80.2,0.0,39.509,,,,NaN,,,,0 / 0,2328,2020-10-20 19:52:24:282
-9.8373,-4.7678,0.8226,-7.7886,-5.7522,1.556,-2.0168,1.008,-0.7398,-66.62,-92.16,-127.34,0.0,38.29,101.59,-1.19,355.16,33.22,80.2,0.0,39.509,,,,NaN,,,,0 / 0,2332,2020-10-20 19:52:24:286
-10.5958,-3.6288,6.3954,-7.6018,-5.9739,1.642,-2.958,2.3733,4.7456,-51.22,-88.31,-97.03,0.0,34.99,100.54,0.01,355.16,33.22,80.2,0.0,39.509,,,,NaN,,,,0 / 0,2338,2020-10-20 19:52:24:292
-10.5958,-3.6288,6.3954,-7.6018,-5.9739,1.642,-2.958,2.3733,4.7456,-51.22,-88.31,-97.03,0.0,34.99,100.54,0.01,355.16,33.22,80.2,0.0,39.509,,,,NaN,,,,0 / 0,2343,2020-10-20 19:52:24:297
-10.5958,-3.6288,6.3954,-7.6018,-5.9739,1.642,-2.958,2.3733,4.7456,-51.22,-88.31,-97.03,0.0,34.99,100.54,0.01,355.16,33.22,80.2,0.0,39.509,,,,NaN,,,,0 / 0,2347,2020-10-20 19:52:24:301
-7.2985,-1.8223,6.8357,-7.38,-6.1873,1.85,0.1153,4.3933,4.9773,-10.65,-85.05,-84.15,0.0,33.04,102.79,-0.29,352.35,39.12,75.93,0.0,39.509,,,,NaN,,,,0 / 0,2353,2020-10-20 19:52:24:307
-7.2985,-1.8223,6.8357,-7.38,-6.1873,1.85,0.1153,4.3933,4.9773,-10.65,-85.05,-84.15,0.0,33.04,102.79,-0.29,352.35,39.12,75.93,0.0,39.509,,,,NaN,,,,0 / 0,2358,2020-10-20 19:52:24:312
-7.2985,-1.8223,6.8357,-7.38,-6.1873,1.85,0.1153,4.3933,4.9773,-10.65,-85.05,-84.15,0.0,33.04,102.79,-0.29,352.35,39.12,75.93,0.0,39.509,,,,NaN,,,,0 / 0,2362,2020-10-20 19:52:24:316
-3.9821,0.104,7.6421,-7.1912,-6.3458,2.0461,3.2305,6.4687,5.5899,27.46,-84.7,-103.36,0.0,33.04,102.79,-0.29,352.35,39.12,75.93,0.0,39.509,,,,NaN,,,,0 / 0,2367,2020-10-20 19:52:24:321
-3.9821,0.104,7.6421,-7.1912,-6.3458,2.0461,3.2305,6.4687,5.5899,27.46,-84.7,-103.36,0.0,32.89,104.14,-1.19,352.35,39.12,75.93,0.0,39.509,,,,NaN,,,,0 / 0,2373,2020-10-20 19:52:24:327
-3.9821,0.104,7.6421,-7.1912,-6.3458,2.0461,3.2305,6.4687,5.5899,27.46,-84.7,-103.36,0.0,32.89,104.14,-1.19,352.35,39.12,75.93,0.0,39.509,,,,NaN,,,,0 / 0,2378,2020-10-20 19:52:24:332
-3.9821,0.104,7.6421,-7.1912,-6.3458,2.0461,10.3689,6.1547,2.4801,80.94,-93.21,-173.64,0.0,32.89,104.14,-1.19,352.35,39.12,75.93,0.0,39.509,,,,NaN,,,,0 / 0,2382,2020-10-20 19:52:24:336
3.5769,-0.4631,4.9167,-6.8029,-6.6284,2.4404,10.3689,6.1547,2.4801,80.94,-93.21,-173.64,0.0,32.89,104.14,-1.19,352.35,39.12,75.93,0.0,39.509,,,,NaN,,,,0 / 0,2389,2020-10-20 19:52:24:343
3.5769,-0.4631,4.9167,-6.8029,-6.6284,2.4404,10.3689,6.1547,2.4801,80.94,-93.21,-173.64,0.0,28.24,103.99,-3.44,353.49,42.52,70.27,0.0,39.509,,,,NaN,,,,0 / 0,2393,2020-10-20 19:52:24:347
3.5769,-0.4631,4.9167,-6.8029,-6.6284,2.4404,10.3689,6.1547,2.4801,80.94,-93.21,-173.64,0.0,28.24,103.99,-3.44,353.49,42.52,70.27,0.0,39.509,,,,NaN,,,,0 / 0,2397,2020-10-20 19:52:24:351
4.132,-5.0143,0.9613,-6.3495,-6.9689,2.6997,10.4477,1.9175,-1.7239,88.15,-32.9,-260.38,0.0,28.24,103.99,-3.44,353.49,42.52,70.27,0.0,39.509,,,,NaN,,,,0 / 0,2403,2020-10-20 19:52:24:357
4.132,-5.0143,0.9613,-6.3495,-6.9689,2.6997,10.4477,1.9175,-1.7239,88.15,-32.9,-260.38,0.0,28.24,103.99,-3.44,353.49,42.52,70.27,0.0,39.509,,,,NaN,,,,0 / 0,2407,2020-10-20 19:52:24:361
4.132,-5.0143,0.9613,-6.3495,-6.9689,2.6997,10.4477,1.9175,-1.7239,88.15,-32.9,-260.38,0.0,23.29,103.39,-4.34,353.49,42.52,70.27,0.0,39.509,,,,NaN,,,,0 / 0,2412,2020-10-20 19:52:24:366
1.1601,-8.6107,0.1143,-5.7927,-7.3966,2.8115,5.8556,-2.6071,-2.9502,76.39,40.11,-321.77,0.0,23.29,103.39,-4.34,353.49,42.52,70.27,0.0,39.509,,,,NaN,,,,0 / 0,2418,2020-10-20 19:52:24:372
1.1601,-8.6107,0.1143,-5.7927,-7.3966,2.8115,5.8556,-2.6071,-2.9502,76.39,40.11,-321.77,0.0,23.29,103.39,-4.34,353.49,42.52,70.27,0.0,39.509,,,,NaN,,,,0 / 0,2423,2020-10-20 19:52:24:377
1.1601,-8.6107,0.1143,-5.7927,-7.3966,2.8115,5.8556,-2.6071,-2.9502,76.39,40.11,-321.77,0.0,23.29,103.39,-4.34,353.49,42.52,70.27,0.0,39.509,,,,NaN,,,,0 / 0,2428,2020-10-20 19:52:24:382
1.1601,-8.6107,0.1143,-5.7927,-7.3966,2.8115,5.8556,-2.6071,-2.9502,76.39,40.11,-321.77,0.0,23.29,103.39,-4.34,353.49,42.52,70.27,0.0,39.509,,,,NaN,,,,0 / 0,2433,2020-10-20 19:52:24:387
-2.9627,-13.5997,-1.4578,-4.9263,-7.977,2.8757,1.9272,-5.6816,-4.3123,66.8,53.86,-354.56,0.0,18.49,104.74,-5.99,357.43,48.96,64.11,0.0,39.509,,,,NaN,,,,0 / 0,2438,2020-10-20 19:52:24:392
-2.9627,-13.5997,-1.4578,-4.9263,-7.977,2.8757,1.9272,-5.6816,-4.3123,66.8,53.86,-354.56,0.0,18.49,104.74,-5.99,357.43,48.96,64.11,0.0,39.509,,,,NaN,,,,0 / 0,2443,2020-10-20 19:52:24:397
-2.9627,-13.5997,-1.4578,-4.9263,-7.977,2.8757,1.9272,-5.6816,-4.3123,66.8,53.86,-354.56,0.0,18.49,104.74,-5.99,357.43,48.96,64.11,0.0,39.509,,,,NaN,,,,0 / 0,2448,2020-10-20 19:52:24:402
-5.8269,-16.4855,-1.1946,-4.2,-8.3541,2.9562,-1.6498,-8.1768,-4.1347,59.91,-1.89,-353.83,0.0,13.09,105.19,-10.19,357.43,48.96,64.11,0.0,39.509,,,,NaN,,,,0 / 0,2453,2020-10-20 19:52:24:407
-5.8269,-16.4855,-1.1946,-4.2,-8.3541,2.9562,-1.6498,-8.1768,-4.1347,59.91,-1.89,-353.83,0.0,13.09,105.19,-10.19,357.43,48.96,64.11,0.0,39.509,,,,NaN,,,,0 / 0,2457,2020-10-20 19:52:24:411
-5.8269,-16.4855,-1.1946,-4.2,-8.3541,2.9562,-1.6498,-8.1768,-4.1347,59.91,-1.89,-353.83,0.0,13.09,105.19,-10.19,357.43,48.96,64.11,0.0,39.509,,,,NaN,,,,0 / 0,2463,2020-10-20 19:52:24:417
-7.1262,-18.0217,-1.9411,-3.175,-8.7795,3.0016,-3.9577,-9.2602,-4.9366,-22.03,6.93,-343.43,0.0,13.09,105.19,-10.19,357.43,48.96,64.11,0.0,39.509,,,,NaN,,,,0 / 0,2468,2020-10-20 19:52:24:422
-7.1262,-18.0217,-1.9411,-3.175,-8.7795,3.0016,-3.9577,-9.2602,-4.9366,-22.03,6.93,-343.43,0.0,6.49,104.14,-6.89,1.45,63.54,46.61,0.0,39.509,,,,NaN,,,,0 / 0,2472,2020-10-20 19:52:24:426
-7.1262,-18.0217,-1.9411,-3.175,-8.7795,3.0016,-3.9577,-9.2602,-4.9366,-22.03,6.93,-343.43,0.0,6.49,104.14,-6.89,1.45,63.54,46.61,0.0,39.509,,,,NaN,,,,0 / 0,2477,2020-10-20 19:52:24:431
-12.223,-19.041,5.0052,-2.5493,-9.0413,2.8153,-9.6676,-9.9782,2.1832,-68.68,65.94,-275.53,0.0,6.49,104.14,-6.89,1.45,63.54,46.61,0.0,39.509,,,,NaN,,,,0 / 0,2486,2020-10-20 19:52:24:440
-12.223,-19.041,5.0052,-2.5493,-9.0413,2.8153,-9.6676,-9.9782,2.1832,-68.68,65.94,-275.53,0.0,3.49,102.49,-5.69,1.45,63.54,46.61,0.0,39.509,,,,NaN,,,,0 / 0,2488,2020-10-20 19:52:24:442
-12.223,-19.041,5.0052,-2.5493,-9.0413,2.8153,-9.6676,-9.9782,2.1832,-68.68,65.94,-275.53,0.0,3.49,102.49,-5.69,1.45,63.54,46.61,0.0,39.509,,,,NaN,,,,0 / 0,2494,2020-10-20 19:52:24:448
-12.223,-19.041,5.0052,-2.5493,-9.0413,2.8153,-9.6676,-9.9782,2.1832,-68.68,65.94,-275.53,0.0,3.49,102.49,-5.69,1.45,63.54,46.61,0.0,39.509,,,,NaN,,,,0 / 0,2499,2020-10-20 19:52:24:453
-12.223,-19.041,5.0052,-2.5493,-9.0413,2.8153,-9.6676,-9.9782,2.1832,-68.68,65.94,-275.53,0.0,3.49,102.49,-5.69,1.45,63.54,46.61,0.0,39.509,,,,NaN,,,,0 / 0,2502,2020-10-20 19:52:24:456
-10.8758,-14.8775,7.1779,-2.0489,-9.2262,2.617,-8.8111,-5.5805,4.5408,-43.97,19.6,-136.05,0.0,3.49,102.49,-5.69,1.45,63.54,46.61,0.0,39.509,,,,NaN,,,,0 / 0,2508,2020-10-20 19:52:24:462
-10.8758,-14.8775,7.1779,-2.0489,-9.2262,2.617,-8.8111,-5.5805,4.5408,-43.97,19.6,-136.05,0.0,1.09,102.64,-7.34,6.9,70.19,38.06,0.0,39.509,,,,NaN,,,,0 / 0,2513,2020-10-20 19:52:24:467
-10.8758,-14.8775,7.1779,-2.0489,-9.2262,2.617,-8.8111,-5.5805,4.5408,-43.97,19.6,-136.05,0.0,1.09,102.64,-7.34,6.9,70.19,38.06,0.0,39.509,,,,NaN,,,,0 / 0,2517,2020-10-20 19:52:24:471
-3.9917,-12.0348,4.2706,-1.8533,-9.2894,2.5384,-2.1207,-2.6567,1.708,-38.27,-23.56,-66.93,0.0,1.09,102.64,-7.34,6.9,70.19,38.06,0.0,39.509,,,,NaN,,,,0 / 0,2527,2020-10-20 19:52:24:481
-3.9917,-12.0348,4.2706,-1.8533,-9.2894,2.5384,-2.1207,-2.6567,1.708,-38.27,-23.56,-66.93,0.0,1.09,102.64,-7.34,6.9,70.19,38.06,0.0,39.509,,,,NaN,,,,0 / 0,2531,2020-10-20 19:52:24:485
-3.9917,-12.0348,4.2706,-1.8533,-9.2894,2.5384,-2.1207,-2.6567,1.708,-38.27,-23.56,-66.93,0.0,1.09,102.64,-7.34,6.9,70.19,38.06,0.0,39.509,,,,NaN,,,,0 / 0,2533,2020-10-20 19:52:24:487
-0.4933,-10.3742,2.2343,-1.6335,-9.3641,2.4115,1.1569,-0.914,-0.2019,-55.21,-54.78,-57.9,0.0,-0.41,101.59,-3.74,6.9,70.19,38.06,0.0,39.509,,,,NaN,,,,0 / 0,2540,2020-10-20 19:52:24:494
-0.4933,-10.3742,2.2343,-1.6335,-9.3641,2.4115,1.1569,-0.914,-0.2019,-55.21,-54.78,-57.9,0.0,-0.41,101.59,-3.74,6.9,70.19,38.06,0.0,39.509,,,,NaN,,,,0 / 0,2542,2020-10-20 19:52:24:496
-0.4933,-10.3742,2.2343,-1.6335,-9.3641,2.4115,1.1569,-0.914,-0.2019,-55.21,-54.78,-57.9,0.0,-0.41,101.59,-3.74,6.9,70.19,38.06,0.0,50.055,,,,NaN,,,,0 / 0,2548,2020-10-20 19:52:24:502
0.4877,-9.764,0.9039,-1.4363,-9.4285,2.2826,1.9387,-0.239,-1.4021,-68.37,-73.61,-66.44,0.0,-3.71,103.09,-4.79,12.95,74.04,32.18,0.0,50.055,,,,NaN,,,,0 / 0,2553,2020-10-20 19:52:24:507
0.4877,-9.764,0.9039,-1.4363,-9.4285,2.2826,1.9387,-0.239,-1.4021,-68.37,-73.61,-66.44,0.0,-3.71,103.09,-4.79,12.95,74.04,32.18,0.0,50.055,,,,NaN,,,,0 / 0,2557,2020-10-20 19:52:24:511
0.4877,-9.764,0.9039,-1.4363,-9.4285,2.2826,1.9387,-0.239,-1.4021,-68.37,-73.61,-66.44,0.0,-3.71,103.09,-4.79,12.95,74.04,32.18,0.0,50.055,,,,NaN,,,,0 / 0,2563,2020-10-20 19:52:24:517
0.1671,-7.6607,1.4926,-1.1858,-9.4994,2.1272,1.3646,1.9322,-0.6556,-81.56,-104.69,-91.11,0.0,-3.71,103.09,-4.79,12.95,74.04,32.18,0.0,50.055,,,,NaN,,,,0 / 0,2568,2020-10-20 19:52:24:522
0.1671,-7.6607,1.4926,-1.1858,-9.4994,2.1272,1.3646,1.9322,-0.6556,-81.56,-104.69,-91.11,0.0,-3.11,102.19,-2.39,12.95,74.04,32.18,0.0,50.055,,,,NaN,,,,0 / 0,2572,2020-10-20 19:52:24:526
0.1671,-7.6607,1.4926,-1.1858,-9.4994,2.1272,1.3646,1.9322,-0.6556,-81.56,-104.69,-91.11,0.0,-3.11,102.19,-2.39,12.95,74.04,32.18,0.0,50.055,,,,NaN,,,,0 / 0,2578,2020-10-20 19:52:24:532
0.1671,-7.6607,1.4926,-1.1858,-9.4994,2.1272,1.3646,1.9322,-0.6556,-81.56,-104.69,-91.11,0.0,-3.11,102.19,-2.39,12.95,74.04,32.18,0.0,50.055,,,,NaN,,,,0 / 0,2583,2020-10-20 19:52:24:537
-0.5532,-7.443,-0.0987,-0.7454,-9.5958,1.8803,0.1985,2.2334,-1.9948,-93.11,-148.47,-113.8,0.0,-3.11,102.19,-2.39,12.95,74.04,32.18,0.0,50.055,,,,NaN,,,,0 / 0,2587,2020-10-20 19:52:24:541
-0.5532,-7.443,-0.0987,-0.7454,-9.5958,1.8803,0.1985,2.2334,-1.9948,-93.11,-148.47,-113.8,0.0,-6.26,101.89,0.31,13.52,78.1,21.62,0.0,50.055,,,,NaN,,,,0 / 0,2596,2020-10-20 19:52:24:550
-0.5532,-7.443,-0.0987,-0.7454,-9.5958,1.8803,0.1985,2.2334,-1.9948,-93.11,-148.47,-113.8,0.0,-6.26,101.89,0.31,13.52,78.1,21.62,0.0,50.055,,,,NaN,,,,0 / 0,2598,2020-10-20 19:52:24:552
-1.1346,-8.0699,-0.2949,-0.3902,-9.6583,1.6542,-0.7414,1.6617,-1.9616,-101.3,-148.26,-119.08,0.0,-6.26,101.89,0.31,13.52,78.1,21.62,0.0,50.055,,,,NaN,,,,0 / 0,2604,2020-10-20 19:52:24:558
-1.1346,-8.0699,-0.2949,-0.3902,-9.6583,1.6542,-0.7414,1.6617,-1.9616,-101.3,-148.26,-119.08,0.0,-6.26,101.89,0.31,13.52,78.1,21.62,0.0,50.055,,,,NaN,,,,0 / 0,2608,2020-10-20 19:52:24:562
-1.1346,-8.0699,-0.2949,-0.3902,-9.6583,1.6542,-0.7414,1.6617,-1.9616,-101.3,-148.26,-119.08,0.0,-9.56,103.09,3.16,13.52,78.1,21.62,0.0,50.055,,,,NaN,,,,0 / 0,2612,2020-10-20 19:52:24:566
-1.1346,-8.0699,-0.2949,-0.3902,-9.6583,1.6542,-0.7414,1.6617,-1.9616,-101.3,-148.26,-119.08,0.0,-9.56,103.09,3.16,13.52,78.1,21.62,0.0,50.055,,,,NaN,,,,0 / 0,2618,2020-10-20 19:52:24:572
-1.6921,-8.7734,-0.7687,0.0034,-9.718,1.3157,-1.6956,1.0098,-2.0932,-103.58,-119.53,-85.44,0.0,-9.56,103.09,3.16,13.52,78.1,21.62,0.0,50.055,,,,NaN,,,,0 / 0,2622,2020-10-20 19:52:24:576
-1.6921,-8.7734,-0.7687,0.0034,-9.718,1.3157,-1.6956,1.0098,-2.0932,-103.58,-119.53,-85.44,0.0,-9.56,103.09,3.16,13.52,78.1,21.62,0.0,50.055,,,,NaN,,,,0 / 0,2628,2020-10-20 19:52:24:582
-1.6921,-8.7734,-0.7687,0.0034,-9.718,1.3157,-1.6956,1.0098,-2.0932,-103.58,-119.53,-85.44,0.0,-9.56,103.09,3.16,13.52,78.1,21.62,0.0,50.055,,,,NaN,,,,0 / 0,2632,2020-10-20 19:52:24:586
-0.7781,-8.637,-0.1729,0.1688,-9.7481,1.0568,-0.9479,1.1726,-1.2363,-99.9,-94.4,-43.3,0.0,-10.76,101.74,4.81,39.14,83.74,-9.07,0.0,50.055,,,,NaN,,,,0 / 0,2638,2020-10-20 19:52:24:592
-0.7781,-8.637,-0.1729,0.1688,-9.7481,1.0568,-0.9479,1.1726,-1.2363,-99.9,-94.4,-43.3,0.0,-10.76,101.74,4.81,39.14,83.74,-9.07,0.0,50.055,,,,NaN,,,,0 / 0,2643,2020-10-20 19:52:24:597
-0.7781,-8.637,-0.1729,0.1688,-9.7481,1.0568,-0.9479,1.1726,-1.2363,-99.9,-94.4,-43.3,0.0,-10.76,101.74,4.81,39.14,83.74,-9.07,0.0,50.055,,,,NaN,,,,0 / 0,2649,2020-10-20 19:52:24:603
-0.7781,-8.637,-0.1729,0.1688,-9.7481,1.0568,-0.9479,1.1726,-1.2363,-99.9,-94.4,-43.3,0.0,-10.76,101.74,4.81,39.14,83.74,-9.07,0.0,50.055,,,,NaN,,,,0 / 0,2653,2020-10-20 19:52:24:607
0.3609,-8.1465,-0.0484,0.2822,-9.7748,0.737,0.0772,1.6818,-0.7894,-93.85,-69.58,-20.34,0.0,-12.26,100.99,8.56,39.14,83.74,-9.07,0.0,50.055,,,,NaN,,,,0 / 0,2658,2020-10-20 19:52:24:612
0.3609,-8.1465,-0.0484,0.2822,-9.7748,0.737,0.0772,1.6818,-0.7894,-93.85,-69.58,-20.34,0.0,-12.26,100.99,8.56,39.14,83.74,-9.07,0.0,50.055,,,,NaN,,,,0 / 0,2663,2020-10-20 19:52:24:617
0.3609,-8.1465,-0.0484,0.2822,-9.7748,0.737,0.0772,1.6818,-0.7894,-93.85,-69.58,-20.34,0.0,-12.26,100.99,8.56,39.14,83.74,-9.07,0.0,50.055,,,,NaN,,,,0 / 0,2667,2020-10-20 19:52:24:621
0.3609,-8.1465,-0.0484,0.2822,-9.7748,0.737,0.0772,1.6818,-0.7894,-93.85,-69.58,-20.34,0.0,-12.26,100.99,8.56,39.14,83.74,-9.07,0.0,50.055,,,,NaN,,,,0 / 0,2673,2020-10-20 19:52:24:627
0.7892,-8.0795,-0.3858,0.3421,-9.7931,0.3866,0.4455,1.7589,-0.7742,-110.37,-68.43,-10.12,0.0,-10.31,101.89,9.01,67.83,86.98,-41.51,0.0,50.055,,,,NaN,,,,0 / 0,2678,2020-10-20 19:52:24:632
0.7892,-8.0795,-0.3858,0.3421,-9.7931,0.3866,0.4455,1.7589,-0.7742,-110.37,-68.43,-10.12,0.0,-10.31,101.89,9.01,67.83,86.98,-41.51,0.0,50.055,,,,NaN,,,,0 / 0,2682,2020-10-20 19:52:24:636
0.5069,-6.6893,1.2724,0.3713,-9.7991,0.0967,0.1342,3.1458,1.1754,-113.45,-47.53,-10.51,0.0,-10.31,101.89,9.01,67.83,86.98,-41.51,0.0,50.055,,,,NaN,,,,0 / 0,2688,2020-10-20 19:52:24:642
0.5069,-6.6893,1.2724,0.3713,-9.7991,0.0967,0.1342,3.1458,1.1754,-113.45,-47.53,-10.51,0.0,-12.86,101.89,13.06,67.83,86.98,-41.51,0.0,50.055,,,,NaN,,,,0 / 0,2693,2020-10-20 19:52:24:647
0.5069,-6.6893,1.2724,0.3713,-9.7991,0.0967,0.1342,3.1458,1.1754,-113.45,-47.53,-10.51,0.0,-12.86,101.89,13.06,67.83,86.98,-41.51,0.0,50.055,,,,NaN,,,,0 / 0,2697,2020-10-20 19:52:24:651
0.8179,-6.5385,3.5887,0.4155,-9.7972,-0.1114,0.4015,3.2815,3.7004,-75.4,79.41,-21.04,0.0,-12.86,101.89,13.06,67.83,86.98,-41.51,0.0,50.055,,,,NaN,,,,0 / 0,2703,2020-10-20 19:52:24:657
0.8179,-6.5385,3.5887,0.4155,-9.7972,-0.1114,0.4015,3.2815,3.7004,-75.4,79.41,-21.04,0.0,-12.86,101.89,13.06,67.83,86.98,-41.51,0.0,50.055,,,,NaN,,,,0 / 0,2708,2020-10-20 19:52:24:662
0.8179,-6.5385,3.5887,0.4155,-9.7972,-0.1114,0.4015,3.2815,3.7004,-75.4,79.41,-21.04,0.0,-12.86,101.89,13.06,67.83,86.98,-41.51,0.0,50.055,,,,NaN,,,,0 / 0,2713,2020-10-20 19:52:24:667
1.1816,-6.3902,1.7031,0.5036,-9.7913,-0.2188,0.6775,3.4114,1.9221,-47.16,156.35,-37.49,0.0,-11.36,101.59,11.56,144.06,86.79,-113.48,0.0,50.055,,,,NaN,,,,0 / 0,2718,2020-10-20 19:52:24:672
1.1816,-6.3902,1.7031,0.5036,-9.7913,-0.2188,0.6775,3.4114,1.9221,-47.16,156.35,-37.49,0.0,-11.36,101.59,11.56,144.06,86.79,-113.48,0.0,50.055,,,,NaN,,,,0 / 0,2723,2020-10-20 19:52:24:677
1.1816,-6.3902,1.7031,0.5036,-9.7913,-0.2188,0.6775,3.4114,1.9221,-47.16,156.35,-37.49,0.0,-11.36,101.59,11.56,144.06,86.79,-113.48,0.0,50.055,,,,NaN,,,,0 / 0,2727,2020-10-20 19:52:24:681
0.8443,-6.2585,-0.5557,0.6908,-9.7764,-0.3396,0.154,3.5099,-0.2164,-47.12,144.17,-59.51,0.0,-14.06,101.74,12.16,144.06,86.79,-113.48,0.0,50.055,,,,NaN,,,,0 / 0,2732,2020-10-20 19:52:24:686
0.8443,-6.2585,-0.5557,0.6908,-9.7764,-0.3396,0.154,3.5099,-0.2164,-47.12,144.17,-59.51,0.0,-14.06,101.74,12.16,144.06,86.79,-113.48,0.0,50.055,,,,NaN,,,,0 / 0,2738,2020-10-20 19:52:24:692
0.8443,-6.2585,-0.5557,0.6908,-9.7764,-0.3396,0.154,3.5099,-0.2164,-47.12,144.17,-59.51,0.0,-14.06,101.74,12.16,144.06,86.79,-113.48,0.0,50.055,,,,NaN,,,,0 / 0,2743,2020-10-20 19:52:24:697
0.8443,-6.2585,-0.5557,0.6908,-9.7764,-0.3396,0.154,3.5099,-0.2164,-47.12,144.17,-59.51,0.0,-14.06,101.74,12.16,144.06,86.79,-113.48,0.0,50.055,,,,NaN,,,,0 / 0,2749,2020-10-20 19:52:24:703
1.2295,-7.4597,0.8776,0.8691,-9.7592,-0.4159,0.3621,2.2811,1.2927,-37.74,129.75,-68.54,0.0,-12.71,100.69,11.41,144.06,86.79,-113.48,0.0,50.055,,,,NaN,,,,0 / 0,2753,2020-10-20 19:52:24:707
1.2295,-7.4597,0.8776,0.8691,-9.7592,-0.4159,0.3621,2.2811,1.2927,-37.74,129.75,-68.54,0.0,-12.71,100.69,11.41,144.06,86.79,-113.48,0.0,50.055,,,,NaN,,,,0 / 0,2758,2020-10-20 19:52:24:712
1.2295,-7.4597,0.8776,0.8691,-9.7592,-0.4159,0.3621,2.2811,1.2927,-37.74,129.75,-68.54,0.0,-12.71,100.69,11.41,144.06,86.79,-113.48,0.0,50.055,,,,NaN,,,,0 / 0,2764,2020-10-20 19:52:24:718
1.2295,-7.4597,0.8776,0.8691,-9.7592,-0.4159,0.3621,2.2811,1.2927,-37.74,129.75,-68.54,0.0,-12.71,100.69,11.41,144.06,86.79,-113.48,0.0,50.055,,,,NaN,,,,0 / 0,2768,2020-10-20 19:52:24:722
1.3396,-10.1971,0.2315,1.0657,-9.7389,-0.4334,0.207,-0.4844,0.6561,-2.25,96.88,-79.25,0.0,-14.51,100.24,10.66,143.72,83.26,-112.13,0.0,50.055,,,,NaN,,,,0 / 0,2772,2020-10-20 19:52:24:726
1.3396,-10.1971,0.2315,1.0657,-9.7389,-0.4334,0.207,-0.4844,0.6561,-2.25,96.88,-79.25,0.0,-14.51,100.24,10.66,143.72,83.26,-112.13,0.0,50.055,,,,NaN,,,,0 / 0,2778,2020-10-20 19:52:24:732
1.3396,-10.1971,0.2315,1.0657,-9.7389,-0.4334,0.207,-0.4844,0.6561,-2.25,96.88,-79.25,0.0,-14.51,100.24,10.66,143.72,83.26,-112.13,0.0,50.055,,,,NaN,,,,0 / 0,2783,2020-10-20 19:52:24:737
0.4064,-9.8119,-1.2089,1.3301,-9.7082,-0.3897,-0.9211,-0.1232,-0.82,5.24,83.93,-71.72,0.0,-14.51,100.24,10.66,143.72,83.26,-112.13,0.0,50.055,,,,NaN,,,,0 / 0,2788,2020-10-20 19:52:24:742
0.4064,-9.8119,-1.2089,1.3301,-9.7082,-0.3897,-0.9211,-0.1232,-0.82,5.24,83.93,-71.72,0.0,-15.41,97.99,10.51,143.72,83.26,-112.13,0.0,50.055,,,,NaN,,,,0 / 0,2793,2020-10-20 19:52:24:747
0.4064,-9.8119,-1.2089,1.3301,-9.7082,-0.3897,-0.9211,-0.1232,-0.82,5.24,83.93,-71.72,0.0,-15.41,97.99,10.51,143.72,83.26,-112.13,0.0,50.055,,,,NaN,,,,0 / 0,2799,2020-10-20 19:52:24:753
0.4064,-9.8119,-1.2089,1.3301,-9.7082,-0.3897,-0.9211,-0.1232,-0.82,5.24,83.93,-71.72,0.0,-15.41,97.99,10.51,143.72,83.26,-112.13,0.0,50.055,,,,NaN,,,,0 / 0,2803,2020-10-20 19:52:24:757
0.4064,-9.8119,-1.2089,1.3301,-9.7082,-0.3897,-0.9211,-0.1232,-0.82,5.24,83.93,-71.72,0.0,-15.41,97.99,10.51,143.72,83.26,-112.13,0.0,50.055,,,,NaN,,,,0 / 0,2807,2020-10-20 19:52:24:761
-0.7877,-15.2603,-0.204,1.4808,-9.6876,-0.3587,-2.2679,-5.5762,0.1546,0.34,51.1,-42.32,0.0,-15.41,97.99,10.51,143.72,83.26,-112.13,0.0,50.055,,,,NaN,,,,0 / 0,2813,2020-10-20 19:52:24:767
-0.7877,-15.2603,-0.204,1.4808,-9.6876,-0.3587,-2.2679,-5.5762,0.1546,0.34,51.1,-42.32,0.0,-15.26,98.89,10.36,102.27,81.06,-103.62,0.0,50.055,,,,NaN,,,,0 / 0,2817,2020-10-20 19:52:24:771
-1.5127,-21.1299,0.1286,1.3817,-9.7019,-0.3674,-2.8999,-11.3894,0.4975,-3.3,-42.74,55.68,0.0,-15.26,98.89,10.36,102.27,81.06,-103.62,0.0,50.055,,,,NaN,,,,0 / 0,2823,2020-10-20 19:52:24:777
-1.5127,-21.1299,0.1286,1.3817,-9.7019,-0.3674,-2.8999,-11.3894,0.4975,-3.3,-42.74,55.68,0.0,-15.26,98.89,10.36,102.27,81.06,-103.62,0.0,50.055,,,,NaN,,,,0 / 0,2828,2020-10-20 19:52:24:782
-1.5127,-21.1299,0.1286,1.3817,-9.7019,-0.3674,-2.8999,-11.3894,0.4975,-19.26,-56.6,111.33,0.0,-14.51,98.44,10.36,102.27,81.06,-103.62,0.0,50.055,,,,NaN,,,,0 / 0,2833,2020-10-20 19:52:24:787
-1.5127,-21.1299,0.1286,1.3817,-9.7019,-0.3674,-2.8999,-11.3894,0.4975,-19.26,-56.6,111.33,0.0,-14.51,98.44,10.36,102.27,81.06,-103.62,0.0,50.055,,,,NaN,,,,0 / 0,2838,2020-10-20 19:52:24:792
-1.5127,-21.1299,0.1286,1.3817,-9.7019,-0.3674,-2.8999,-11.3894,0.4975,-19.26,-56.6,111.33,0.0,-14.51,98.44,10.36,102.27,81.06,-103.62,0.0,50.055,,,,NaN,,,,0 / 0,2842,2020-10-20 19:52:24:796
0.4016,-22.6566,-0.0221,1.0244,-9.7431,-0.4387,-0.6335,-12.8119,0.4212,-25.56,-51.1,121.69,0.0,-14.51,98.44,10.36,102.27,81.06,-103.62,0.0,50.055,,,,NaN,,,,0 / 0,2848,2020-10-20 19:52:24:802
0.4016,-22.6566,-0.0221,1.0244,-9.7431,-0.4387,-0.6335,-12.8119,0.4212,-25.56,-51.1,121.69,0.0,-14.51,98.44,10.36,102.27,81.06,-103.62,0.0,50.055,,,,NaN,,,,0 / 0,2853,2020-10-20 19:52:24:807
0.4016,-22.6566,-0.0221,1.0244,-9.7431,-0.4387,-0.6335,-12.8119,0.4212,-25.56,-51.1,121.69,0.0,-14.51,98.44,10.36,102.27,81.06,-103.62,0.0,50.055,,,,NaN,,,,0 / 0,2857,2020-10-20 19:52:24:811
3.2634,-17.2679,0.6981,0.7198,-9.766,-0.5259,2.5335,-7.365,1.2314,-37.29,-23.45,118.01,0.0,-13.46,99.49,11.41,171.29,84.78,-126.15,0.0,50.055,,,,NaN,,,,0 / 0,2863,2020-10-20 19:52:24:817
3.2634,-17.2679,0.6981,0.7198,-9.766,-0.5259,2.5335,-7.365,1.2314,-37.29,-23.45,118.01,0.0,-13.46,99.49,11.41,171.29,84.78,-126.15,0.0,50.055,,,,NaN,,,,0 / 0,2867,2020-10-20 19:52:24:821
3.5577,-10.9341,1.5093,0.4237,-9.7772,-0.6301,3.1274,-1.0041,2.1492,-28.78,-3.12,78.25,0.0,-11.96,101.44,11.71,171.29,84.78,-126.15,0.0,50.055,,,,NaN,,,,0 / 0,2874,2020-10-20 19:52:24:828
3.5577,-10.9341,1.5093,0.4237,-9.7772,-0.6301,3.1274,-1.0041,2.1492,-28.78,-3.12,78.25,0.0,-11.96,101.44,11.71,171.29,84.78,-126.15,0.0,50.055,,,,NaN,,,,0 / 0,2877,2020-10-20 19:52:24:831
3.5577,-10.9341,1.5093,0.4237,-9.7772,-0.6301,3.1274,-1.0041,2.1492,-28.78,-3.12,78.25,0.0,-11.96,101.44,11.71,171.29,84.78,-126.15,0.0,46.765,,,,NaN,,,,0 / 0,2883,2020-10-20 19:52:24:837
3.5577,-10.9341,1.5093,0.4237,-9.7772,-0.6301,3.1274,-1.0041,2.1492,-28.78,-3.12,78.25,0.0,-11.96,101.44,11.71,171.29,84.78,-126.15,0.0,46.765,,,,NaN,,,,0 / 0,2888,2020-10-20 19:52:24:842
3.5577,-10.9341,1.5093,0.4237,-9.7772,-0.6301,3.1274,-1.0041,2.1492,-28.78,-3.12,78.25,0.0,-11.96,101.44,11.71,171.29,84.78,-126.15,0.0,46.765,,,,NaN,,,,0 / 0,2892,2020-10-20 19:52:24:846
3.0217,-8.4719,1.1049,0.2854,-9.7799,-0.6656,2.7319,1.4579,1.7807,-10.93,-4.31,51.3,0.0,-11.21,100.69,12.46,214.38,85.76,-156.79,0.0,46.765,,,,NaN,,,,0 / 0,2898,2020-10-20 19:52:24:852
3.0217,-8.4719,1.1049,0.2854,-9.7799,-0.6656,2.7319,1.4579,1.7807,-10.93,-4.31,51.3,0.0,-11.21,100.69,12.46,214.38,85.76,-156.79,0.0,46.765,,,,NaN,,,,0 / 0,2903,2020-10-20 19:52:24:857
3.0217,-8.4719,1.1049,0.2854,-9.7799,-0.6656,2.7319,1.4579,1.7807,-10.93,-4.31,51.3,0.0,-11.21,100.69,12.46,214.38,85.76,-156.79,0.0,46.765,,,,NaN,,,,0 / 0,2907,2020-10-20 19:52:24:861
1.7511,-6.8089,-0.2949,0.1674,-9.7845,-0.6372,1.5815,3.1089,0.351,15.49,-5.08,20.5,0.0,-9.41,101.44,11.41,214.38,85.76,-156.79,0.0,46.765,,,,NaN,,,,0 / 0,2913,2020-10-20 19:52:24:867
1.7511,-6.8089,-0.2949,0.1674,-9.7845,-0.6372,1.5815,3.1089,0.351,15.49,-5.08,20.5,0.0,-9.41,101.44,11.41,214.38,85.76,-156.79,0.0,46.765,,,,NaN,,,,0 / 0,2917,2020-10-20 19:52:24:871
1.7511,-6.8089,-0.2949,0.1674,-9.7845,-0.6372,1.5815,3.1089,0.351,15.49,-5.08,20.5,0.0,-9.41,101.44,11.41,214.38,85.76,-156.79,0.0,46.765,,,,NaN,,,,0 / 0,2923,2020-10-20 19:52:24:877
1.5286,-6.9548,-0.6658,0.1471,-9.787,-0.6031,1.3796,2.958,-0.0549,22.56,0.38,12.42,0.0,-9.41,101.44,11.41,214.38,85.76,-156.79,0.0,46.765,,,,NaN,,,,0 / 0,2927,2020-10-20 19:52:24:881
1.5286,-6.9548,-0.6658,0.1471,-9.787,-0.6031,1.3796,2.958,-0.0549,22.56,0.38,12.42,0.0,-9.41,101.44,11.41,214.38,85.76,-156.79,0.0,46.765,,,,NaN,,,,0 / 0,2933,2020-10-20 19:52:24:887
1.0859,-8.113,-0.8596,0.1386,-9.7911,-0.534,0.9457,1.7957,-0.3192,28.34,7.45,5.38,0.0,-9.86,102.34,11.56,222.33,86.37,-166.29,0.0,46.765,,,,NaN,,,,0 / 0,2938,2020-10-20 19:52:24:892
1.0859,-8.113,-0.8596,0.1386,-9.7911,-0.534,0.9457,1.7957,-0.3192,28.34,7.45,5.38,0.0,-9.86,102.34,11.56,222.33,86.37,-166.29,0.0,46.765,,,,NaN,,,,0 / 0,2942,2020-10-20 19:52:24:896
1.0859,-8.113,-0.8596,0.1386,-9.7911,-0.534,0.9457,1.7957,-0.3192,28.34,7.45,5.38,0.0,-9.86,102.34,11.56,222.33,86.37,-166.29,0.0,46.765,,,,NaN,,,,0 / 0,2948,2020-10-20 19:52:24:902
1.0859,-8.113,-0.8596,0.1386,-9.7911,-0.534,0.9457,1.7957,-0.3192,28.34,7.45,5.38,0.0,-9.86,102.34,11.56,222.33,86.37,-166.29,0.0,46.765,,,,NaN,,,,0 / 0,2953,2020-10-20 19:52:24:907
0.526,-9.6922,-0.8787,0.1444,-9.7953,-0.4497,0.3799,0.218,-0.4238,35.55,18.41,-1.86,0.0,-8.21,103.54,11.41,222.33,86.37,-166.29,0.0,46.765,,,,NaN,,,,0 / 0,2957,2020-10-20 19:52:24:911
0.526,-9.6922,-0.8787,0.1444,-9.7953,-0.4497,0.3799,0.218,-0.4238,35.55,18.41,-1.86,0.0,-8.21,103.54,11.41,222.33,86.37,-166.29,0.0,46.765,,,,NaN,,,,0 / 0,2963,2020-10-20 19:52:24:917
0.2747,-10.647,-1.0032,0.1507,-9.7976,-0.3923,0.0186,-1.1111,-0.7068,34.64,22.64,-2.74,0.0,-8.21,103.54,11.41,222.33,86.37,-166.29,0.0,46.765,,,,NaN,,,,0 / 0,2967,2020-10-20 19:52:24:921
0.2747,-10.647,-1.0032,0.1507,-9.7976,-0.3923,0.0186,-1.1111,-0.7068,34.64,22.64,-2.74,0.0,-8.51,104.14,10.81,222.33,86.37,-166.29,0.0,46.765,,,,NaN,,,,0 / 0,2972,2020-10-20 19:52:24:926
0.2747,-10.647,-1.0032,0.1507,-9.7976,-0.3923,0.0186,-1.1111,-0.7068,34.64,22.64,-2.74,0.0,-8.51,104.14,10.81,206.27,87.54,-158.98,0.0,46.765,,,,NaN,,,,0 / 0,2978,2020-10-20 19:52:24:932
0.2747,-10.647,-1.0032,0.1507,-9.7976,-0.3923,0.0186,-1.1111,-0.7068,34.64,22.64,-2.74,0.0,-8.51,104.14,10.81,206.27,87.54,-158.98,0.0,46.765,,,,NaN,,,,0 / 0,2983,2020-10-20 19:52:24:937
0.1073,-11.5682,-1.0893,0.1635,-9.8007,-0.3006,-0.0584,-1.6419,-0.7849,11.75,38.88,-1.65,0.0,-8.51,104.14,10.81,206.27,87.54,-158.98,0.0,46.765,,,,NaN,,,,0 / 0,2987,2020-10-20 19:52:24:941
0.1073,-11.5682,-1.0893,0.1635,-9.8007,-0.3006,-0.0584,-1.6419,-0.7849,11.75,38.88,-1.65,0.0,-22.12,45.13,-5.6,206.27,87.54,-158.98,0.0,46.765,,,,NaN,,,,0 / 0,2992,2020-10-20 19:52:24:946
0.1073,-11.5682,-1.0893,0.1635,-9.8007,-0.3006,-0.0584,-1.6419,-0.7849,11.75,38.88,-1.65,0.0,-22.12,45.13,-5.6,206.27,87.54,-158.98,0.0,46.765,,,,NaN,,,,0 / 0,2997,2020-10-20 19:52:24:951
-0.1248,-10.3694,-0.6155,0.1681,-9.8007,-0.2975,-0.2952,-0.4397,-0.3141,-3.16,44.94,-0.32,0.0,-22.12,45.13,-5.6,206.27,87.54,-158.98,0.0,46.765,,,,NaN,,,,0 / 0,3003,2020-10-20 19:52:24:957
-0.1248,-10.3694,-0.6155,0.1681,-9.8007,-0.2975,-0.2952,-0.4397,-0.3141,-3.16,44.94,-0.32,0.0,-22.12,45.13,-5.6,206.27,87.54,-158.98,0.0,46.765,,,,NaN,,,,0 / 0,3008,2020-10-20 19:52:24:962
-0.1248,-10.3694,-0.6155,0.1681,-9.8007,-0.2975,-0.2952,-0.4397,-0.3141,-3.16,44.94,-0.32,0.0,-22.12,45.13,-5.6,206.27,87.54,-158.98,0.0,46.765,,,,NaN,,,,0 / 0,3013,2020-10-20 19:52:24:967
-0.1775,-9.6468,-0.0365,0.1667,-9.8003,-0.3122,-0.3463,0.282,0.2798,-7.43,35.35,2.23,0.0,-23.62,46.18,-7.85,264.08,87.93,-151.9,0.0,46.765,,,,NaN,,,,0 / 0,3018,2020-10-20 19:52:24:972
-0.1775,-9.6468,-0.0365,0.1667,-9.8003,-0.3122,-0.3463,0.282,0.2798,-7.43,35.35,2.23,0.0,-23.62,46.18,-7.85,264.08,87.93,-151.9,0.0,46.765,,,,NaN,,,,0 / 0,3023,2020-10-20 19:52:24:977
-0.1775,-9.6468,-0.0365,0.1667,-9.8003,-0.3122,-0.3463,0.282,0.2798,-7.43,35.35,2.23,0.0,-23.62,46.18,-7.85,264.08,87.93,-151.9,0.0,46.765,,,,NaN,,,,0 / 0,3028,2020-10-20 19:52:24:982
-0.1775,-9.6468,-0.0365,0.1667,-9.8003,-0.3122,-0.3463,0.282,0.2798,-7.43,35.35,2.23,0.0,-23.62,46.18,-7.85,264.08,87.93,-151.9,0.0,46.765,,,,NaN,,,,0 / 0,3032,2020-10-20 19:52:24:986
-0.1775,-9.6468,-0.0365,0.1667,-9.8003,-0.3122,-0.3463,0.282,0.2798,-7.43,35.35,2.23,0.0,-23.62,46.18,-7.85,264.08,87.93,-151.9,0.0,46.765,,,,NaN,,,,0 / 0,3038,2020-10-20 19:52:24:992
-0.0148,-9.575,0.0258,0.162,-9.8,-0.3215,-0.1789,0.3527,0.3515,-6.21,20.96,3.49,0.0,-21.82,45.13,-5.3,264.08,87.93,-151.9,0.0,46.765,,,,NaN,,,,0 / 0,3043,2020-10-20 19:52:24:997
-0.0148,-9.575,0.0258,0.162,-9.8,-0.3215,-0.1789,0.3527,0.3515,-6.21,20.96,3.49,0.0,-21.82,45.13,-5.3,264.08,87.93,-151.9,0.0,46.765,,,,NaN,,,,0 / 0,3047,2020-10-20 19:52:25:001
-0.0148,-9.575,0.0258,0.162,-9.8,-0.3215,-0.1789,0.3527,0.3515,-6.21,20.96,3.49,0.0,-21.82,45.13,-5.3,264.08,87.93,-151.9,0.0,46.765,,,,NaN,,,,0 / 0,3054,2020-10-20 19:52:25:008
0.2245,-9.8693,-0.3978,0.1515,-9.7995,-0.3428,0.0711,0.0568,-0.0505,-6.31,-9.94,1.43,0.0,-22.72,47.83,-5.45,262.87,87.81,-156.17,0.0,46.765,,,,NaN,,,,0 / 0,3058,2020-10-20 19:52:25:012
0.2245,-9.8693,-0.3978,0.1515,-9.7995,-0.3428,0.0711,0.0568,-0.0505,-6.31,-9.94,1.43,0.0,-22.72,47.83,-5.45,262.87,87.81,-156.17,0.0,46.765,,,,NaN,,,,0 / 0,3063,2020-10-20 19:52:25:017
0.2245,-9.8693,-0.3978,0.1515,-9.7995,-0.3428,0.0711,0.0568,-0.0505,-6.31,-9.94,1.43,0.0,-22.72,47.83,-5.45,262.87,87.81,-156.17,0.0,46.765,,,,NaN,,,,0 / 0,3068,2020-10-20 19:52:25:022
0.258,-10.1397,-0.1824,0.1492,-9.7975,-0.3957,0.1069,-0.2149,0.2185,-17.44,-21.98,-0.71,0.0,-22.72,47.83,-5.45,262.87,87.81,-156.17,0.0,46.765,,,,NaN,,,,0 / 0,3072,2020-10-20 19:52:25:026
0.258,-10.1397,-0.1824,0.1492,-9.7975,-0.3957,0.1069,-0.2149,0.2185,-17.44,-21.98,-0.71,0.0,-22.72,46.78,-5.45,262.87,87.81,-156.17,0.0,46.765,,,,NaN,,,,0 / 0,3078,2020-10-20 19:52:25:032
0.258,-10.1397,-0.1824,0.1492,-9.7975,-0.3957,0.1069,-0.2149,0.2185,-17.44,-21.98,-0.71,0.0,-22.72,46.78,-5.45,262.87,87.81,-156.17,0.0,46.765,,,,NaN,,,,0 / 0,3083,2020-10-20 19:52:25:037
0.2125,-10.1206,0.0329,0.1494,-9.7961,-0.4297,0.0612,-0.1967,0.4682,-21.71,-22.86,-0.99,0.0,-22.72,46.78,-5.45,262.87,87.81,-156.17,0.0,46.765,,,,NaN,,,,0 / 0,3088,2020-10-20 19:52:25:042
0.2125,-10.1206,0.0329,0.1494,-9.7961,-0.4297,0.0612,-0.1967,0.4682,-21.71,-22.86,-0.99,0.0,-22.72,46.78,-5.45,262.87,87.81,-156.17,0.0,46.765,,,,NaN,,,,0 / 0,3093,2020-10-20 19:52:25:047
0.2125,-10.1206,0.0329,0.1494,-9.7961,-0.4297,0.0612,-0.1967,0.4682,-21.71,-22.86,-0.99,0.0,-22.42,46.18,-7.85,276.01,87.34,-160.83,0.0,46.765,,,,NaN,,,,0 / 0,3097,2020-10-20 19:52:25:051
0.1719,-9.9004,0.411,0.1485,-9.7925,-0.5048,0.0214,0.02,0.9224,-23.18,-18.45,-0.46,0.0,-22.42,46.18,-7.85,276.01,87.34,-160.83,0.0,46.765,,,,NaN,,,,0 / 0,3102,2020-10-20 19:52:25:056
0.1719,-9.9004,0.411,0.1485,-9.7925,-0.5048,0.0214,0.02,0.9224,-23.18,-18.45,-0.46,0.0,-22.42,46.18,-7.85,276.01,87.34,-160.83,0.0,46.765,,,,NaN,,,,0 / 0,3107,2020-10-20 19:52:25:061
0.1719,-9.9004,0.411,0.1485,-9.7925,-0.5048,0.0214,0.02,0.9224,-23.18,-18.45,-0.46,0.0,-22.42,46.18,-7.85,276.01,87.34,-160.83,0.0,46.765,,,,NaN,,,,0 / 0,3113,2020-10-20 19:52:25:067
0.1527,-9.7066,0.4971,0.1491,-9.7902,-0.5483,0.0017,0.2107,1.0526,-15.8,-13.9,-1.55,0.0,-22.87,45.13,-6.05,276.01,87.34,-160.83,0.0,46.765,,,,NaN,,,,0 / 0,3118,2020-10-20 19:52:25:072
0.1527,-9.7066,0.4971,0.1491,-9.7902,-0.5483,0.0017,0.2107,1.0526,-15.8,-13.9,-1.55,0.0,-22.87,45.13,-6.05,276.01,87.34,-160.83,0.0,46.765,,,,NaN,,,,0 / 0,3122,2020-10-20 19:52:25:076
0.1527,-9.7066,0.4971,0.1491,-9.7902,-0.5483,0.0017,0.2107,1.0526,-15.8,-13.9,-1.55,0.0,-22.87,45.13,-6.05,276.01,87.34,-160.83,0.0,46.765,,,,NaN,,,,0 / 0,3128,2020-10-20 19:52:25:082
-0.0124,-9.5295,0.3536,0.1547,-9.7893,-0.5625,0.0017,0.2107,1.0526,-1.97,-10.96,-3.75,0.0,-22.87,45.13,-6.05,276.01,87.34,-160.83,0.0,46.765,,,,NaN,,,,0 / 0,3133,2020-10-20 19:52:25:087
-0.0124,-9.5295,0.3536,0.1547,-9.7893,-0.5625,-0.2743,0.428,0.8623,-1.97,-10.96,-3.75,0.0,-23.92,46.63,-5.6,275.13,86.59,-164.62,0.0,46.765,,,,NaN,,,,0 / 0,3138,2020-10-20 19:52:25:092
-0.1464,-9.5439,0.0282,0.16,-9.7904,-0.541,-0.2743,0.428,0.8623,12.31,-14.49,-2.63,0.0,-23.92,46.63,-5.6,275.13,86.59,-164.62,0.0,46.765,,,,NaN,,,,0 / 0,3142,2020-10-20 19:52:25:096
-0.1464,-9.5439,0.0282,0.16,-9.7904,-0.541,-0.2743,0.428,0.8623,12.31,-14.49,-2.63,0.0,-23.92,46.63,-5.6,275.13,86.59,-164.62,0.0,46.765,,,,NaN,,,,0 / 0,3148,2020-10-20 19:52:25:102
-0.1464,-9.5439,0.0282,0.16,-9.7904,-0.541,-0.273,0.3206,0.3928,15.67,-16.66,-2.0,0.0,-23.92,46.63,-5.6,275.13,86.59,-164.62,0.0,46.765,,,,NaN,,,,0 / 0,3153,2020-10-20 19:52:25:107
-0.0722,-9.7186,-0.5342,0.1611,-9.7927,-0.4974,-0.273,0.3206,0.3928,15.67,-16.66,-2.0,0.0,-23.92,46.18,-6.05,275.13,86.59,-164.62,0.0,46.765,,,,NaN,,,,0 / 0,3158,2020-10-20 19:52:25:112
-0.0722,-9.7186,-0.5342,0.1611,-9.7927,-0.4974,-0.273,0.3206,0.3928,15.67,-16.66,-2.0,0.0,-23.92,46.18,-6.05,275.13,86.59,-164.62,0.0,46.765,,,,NaN,,,,0 / 0,3162,2020-10-20 19:52:25:116
-0.0722,-9.7186,-0.5342,0.1611,-9.7927,-0.4974,-0.2331,0.1571,-0.2086,18.96,-21.7,-1.72,0.0,-23.92,46.18,-6.05,275.13,86.59,-164.62,0.0,46.765,,,,NaN,,,,0 / 0,3168,2020-10-20 19:52:25:122
-0.0985,-9.8023,-1.0175,0.1622,-9.7946,-0.4577,-0.2331,0.1571,-0.2086,18.96,-21.7,-1.72,0.0,-23.92,46.18,-6.05,275.13,86.59,-164.62,0.0,46.765,,,,NaN,,,,0 / 0,3172,2020-10-20 19:52:25:126
-0.0985,-9.8023,-1.0175,0.1622,-9.7946,-0.4577,-0.2331,0.1571,-0.2086,18.96,-21.7,-1.72,0.0,-23.92,45.88,-5.3,267.59,87.16,-160.49,0.0,46.765,,,,NaN,,,,0 / 0,3178,2020-10-20 19:52:25:132
-0.0985,-9.8023,-1.0175,0.1622,-9.7946,-0.4577,-0.2331,0.1571,-0.2086,18.96,-21.7,-1.72,0.0,-23.92,45.88,-5.3,267.59,87.16,-160.49,0.0,46.765,,,,NaN,,,,0 / 0,3183,2020-10-20 19:52:25:137
-0.2038,-9.8502,-1.1754,0.1637,-9.7951,-0.4475,-0.3696,0.0673,-0.7223,4.92,-21.11,-2.46,0.0,-23.92,45.88,-5.3,267.59,87.16,-160.49,0.0,46.765,,,,NaN,,,,0 / 0,3188,2020-10-20 19:52:25:142
-0.2038,-9.8502,-1.1754,0.1637,-9.7951,-0.4475,-0.3696,0.0673,-0.7223,4.92,-21.11,-2.46,0.0,-23.92,45.88,-5.3,267.59,87.16,-160.49,0.0,46.765,,,,NaN,,,,0 / 0,3192,2020-10-20 19:52:25:146
-0.2038,-9.8502,-1.1754,0.1637,-9.7951,-0.4475,-0.3696,0.0673,-0.7223,4.92,-21.11,-2.46,0.0,-23.92,45.88,-5.3,267.59,87.16,-160.49,0.0,46.765,,,,NaN,,,,0 / 0,3198,2020-10-20 19:52:25:152
-0.3689,-9.9435,-0.9314,0.1653,-9.7941,-0.4684,-0.5363,-0.0269,-0.4571,-13.42,-17.85,-1.79,0.0,-24.37,47.68,-6.8,267.59,87.16,-160.49,0.0,38.536,,,,NaN,,,,0 / 0,3202,2020-10-20 19:52:25:156
-0.3689,-9.9435,-0.9314,0.1653,-9.7941,-0.4684,-0.5363,-0.0269,-0.4571,-13.42,-17.85,-1.79,0.0,-24.37,47.68,-6.8,267.59,87.16,-160.49,0.0,38.536,,,,NaN,,,,0 / 0,3208,2020-10-20 19:52:25:162
-0.3689,-9.9435,-0.9314,0.1653,-9.7941,-0.4684,-0.5363,-0.0269,-0.4571,-13.42,-17.85,-1.79,0.0,-24.37,47.68,-6.8,267.59,87.16,-160.49,0.0,38.536,,,,NaN,,,,0 / 0,3213,2020-10-20 19:52:25:167
-0.3809,-9.7545,-0.3571,0.1566,-9.79,-0.5486,-0.5394,0.1576,0.1983,-27.45,-14.14,3.28,0.0,-23.62,46.63,-7.1,276.57,86.67,-164.07,0.0,38.536,,,,NaN,,,,0 / 0,3218,2020-10-20 19:52:25:172
-0.3809,-9.7545,-0.3571,0.1566,-9.79,-0.5486,-0.5394,0.1576,0.1983,-27.45,-14.14,3.28,0.0,-23.62,46.63,-7.1,276.57,86.67,-164.07,0.0,38.536,,,,NaN,,,,0 / 0,3223,2020-10-20 19:52:25:177
-0.3809,-9.7545,-0.3571,0.1566,-9.79,-0.5486,-0.5394,0.1576,0.1983,-27.45,-14.14,3.28,0.0,-23.62,46.63,-7.1,276.57,86.67,-164.07,0.0,38.536,,,,NaN,,,,0 / 0,3228,2020-10-20 19:52:25:182
-0.3809,-9.7545,-0.3571,0.1566,-9.79,-0.5486,-0.5394,0.1576,0.1983,-27.45,-14.14,3.28,0.0,-23.62,46.63,-7.1,276.57,86.67,-164.07,0.0,38.536,,,,NaN,,,,0 / 0,3232,2020-10-20 19:52:25:186
-0.0291,-9.721,-0.1202,0.1386,-9.7865,-0.6123,-0.1694,0.1867,0.4997,-24.44,-9.49,7.24,0.0,-22.27,46.48,-4.7,276.57,86.67,-164.07,0.0,38.536,,,,NaN,,,,0 / 0,3238,2020-10-20 19:52:25:192
-0.0291,-9.721,-0.1202,0.1386,-9.7865,-0.6123,-0.1694,0.1867,0.4997,-24.44,-9.49,7.24,0.0,-22.27,46.48,-4.7,276.57,86.67,-164.07,0.0,38.536,,,,NaN,,,,0 / 0,3242,2020-10-20 19:52:25:196
-0.0291,-9.721,-0.1202,0.1386,-9.7865,-0.6123,-0.1694,0.1867,0.4997,-24.44,-9.49,7.24,0.0,-22.27,46.48,-4.7,276.57,86.67,-164.07,0.0,38.536,,,,NaN,,,,0 / 0,3247,2020-10-20 19:52:25:201
0.4829,-9.898,-0.1322,0.1124,-9.7832,-0.6682,0.3691,0.0057,0.5442,-13.35,-3.33,7.34,0.0,-22.27,46.48,-4.7,276.57,86.67,-164.07,0.0,38.536,,,,NaN,,,,0 / 0,3253,2020-10-20 19:52:25:207
0.4829,-9.898,-0.1322,0.1124,-9.7832,-0.6682,0.3691,0.0057,0.5442,-13.35,-3.33,7.34,0.0,-22.87,46.63,-4.25,278.23,86.04,-170.45,0.0,38.536,,,,NaN,,,,0 / 0,3258,2020-10-20 19:52:25:212
